Folder: quantdatavision/XRD_data

Note: README.md
# quantdatavision
Mining data visualization

Playing with cristallography and diffraction analysis

File: Mix1B-film.txt
#InstrumentID: BTX.359
#DatasetName: Mix1B
#SampleInfo:
#AcquisitionDate: 12/12/13 22:39:35
#IntegrationTime: 400 seconds
#GeometryParams: axisX = -68.5142 axisY = 134 axisZ = 1194.7 sensorAngle1 = -29.0823 sensorAngle3 = 0
#EnergyParams: splitThreshold = 12 CoKaPeak = 1280 kBFilterIn = 1
5	206.031
5.2	213.435
5.4	211.364
5.6	254.518
5.8	277.312
6	283.071
6.2	392.109
6.4	342.439
6.6	358.241
6.8	351.471
7	292.752
7.2	305.752
7.4	211.609
7.6	191.944
7.8	223.168
8	248.784
8.2	227.705
8.4	211.579
8.6	294.134
8.8	224.935
9	255.774
9.2	299.188
9.4	272.624
9.6	247.504
9.8	203.572
10	245.367
10.2	285.982
10.4	253.265
10.6	240.828
10.8	210.23
11	214.041
11.2	221.873
11.4	241.146
11.6	221.368
11.8	285.752
12	268.836
12.2	168.79
12.4	290.192
12.6	271.352
12.8	246.744
13	323.752
13.2	257.975
13.4	239.429
13.6	277.541
13.8	245.507
14	245.794
14.2	305.772
14.4	233.77
14.6	253.121
14.8	215.585
15	220.142
15.2	293.079
15.4	246.388
15.6	260.988
15.8	248.879
16	349.819
16.2	280.733
16.4	239.087
16.6	281.056
16.8	261.389
17	234.248
17.2	253.869
17.4	319.784
17.6	234.385
17.8	223.743
18	212.063
18.2	204.262
18.4	247.51
18.6	226.297
18.8	204.729
19	231.032
19.2	226.786
19.4	183.215
19.6	195.6
19.8	179.685
20	174.111
20.2	178.605
20.4	175.284
20.6	177.974
20.8	183.526
21	169.647
21.2	224.357
21.4	151.964
21.6	223.299
21.8	170.213
22	163.392
22.2	176.084
22.4	161.236
22.6	149.751
22.8	187.343
23	132.535
23.2	176.495
23.4	168.806
23.6	150.809
23.8	177.755
24	316.562
24.2	1624.4
24.4	1247.35
24.6	311.166
24.8	129.783
25	193.214
25.2	176.881
25.4	227.403
25.6	695.676
25.8	591.491
26	213.462
26.2	183.324
26.4	155.837
26.6	148.742
26.8	235.862
27	281.805
27.2	271.75
27.4	376.051
27.6	223.435
27.8	230.817
28	409.018
28.2	590.185
28.4	436.935
28.6	245.072
28.8	142.822
29	120.077
29.2	158.908
29.4	164.176
29.6	296.258
29.8	332.337
30	164.825
30.2	168.714
30.4	218.662
30.6	349.424
30.8	1508.25
31	7507.98
31.2	4672.03
31.4	498.116
31.6	386.345
31.8	301.219
32	509.397
32.2	653.686
32.4	911.521
32.6	1052.61
32.8	620.976
33	443.293
33.2	205.522
33.4	170.151
33.6	115.642
33.8	80.9142
34	154.491
34.2	161.354
34.4	163.84
34.6	161.61
34.8	174.467
35	197.248
35.2	355.015
35.4	246.361
35.6	273.262
35.8	253.262
36	192.768
36.2	114.496
36.4	193.57
36.6	130.846
36.8	118.71
37	134.32
37.2	122.185
37.4	148.94
37.6	134.855
37.8	138.122
38	106.36
38.2	140.224
38.4	79.2451
38.6	101.187
38.8	82.3592
39	84.7688
39.2	119.693
39.4	84.3596
39.6	103.427
39.8	126.267
40	77.4865
40.2	92.0877
40.4	148.196
40.6	120.656
40.8	219.419
41	188.345
41.2	149.038
41.4	117.827
41.6	147.746
41.8	126.613
42	104.04
42.2	98.9561
42.4	130.156
42.6	433.352
42.8	508.396
43	258.428
43.2	120.759
43.4	105.045
43.6	91.7167
43.8	134.581
44	109.058
44.2	128.667
44.4	105.967
44.6	82.409
44.8	89.5996
45	105.696
45.2	107.092
45.4	110.229
45.6	129.572
45.8	125.954
46	286.219
46.2	629.192
46.4	249.185
46.6	89.5781
46.8	100.898
47	200.11
47.2	261.477
47.4	131.352
47.6	80.8909
47.8	87.1159
48	90.2072
48.2	86.9143
48.4	159.873
48.6	96.9833
48.8	105.891
49	158.349
49.2	122.11
49.4	85.0367
49.6	327.532
49.8	428.66
50	202.233
50.2	108.451
50.4	94.7659
50.6	125.146
50.8	60.9045
51	122.954
51.2	88.1528
51.4	78.8353
51.6	46.4333
51.8	78.257
52	69.6104
52.2	67.0293
52.4	74.6493
52.6	57.3694
52.8	94.791
53	130.442
53.2	145.982
53.4	109.242
53.6	251.7
53.8	349.75
54	130.729
54.2	123.822
54.4	137.17
54.6	75.611
54.8	78.7891
54.9	116.582

File: Mix1C-film.txt
#InstrumentID: BTX.359
#DatasetName: Mix1C
#SampleInfo:
#AcquisitionDate: 12/12/13 23:00:30
#IntegrationTime: 400 seconds
#GeometryParams: axisX = -68.5142 axisY = 134 axisZ = 1194.7 sensorAngle1 = -29.0823 sensorAngle3 = 0
#EnergyParams: splitThreshold = 12 CoKaPeak = 1280 kBFilterIn = 1
5	236.819
5.2	207.581
5.4	215.151
5.6	182.431
5.8	193.913
6	288.732
6.2	337.332
6.4	309.386
6.6	252.463
6.8	300.726
7	276.362
7.2	261.983
7.4	209.078
7.6	185.98
7.8	197.41
8	241.734
8.2	250.898
8.4	209.389
8.6	154.477
8.8	227.193
9	289.228
9.2	198.844
9.4	204.388
9.6	246.927
9.8	230.056
10	319.296
10.2	225.416
10.4	225.3
10.6	219.76
10.8	211.403
11	252.125
11.2	218.937
11.4	219.098
11.6	239.495
11.8	210.407
12	273.364
12.2	265.059
12.4	199.404
12.6	258.411
12.8	289.544
13	305.413
13.2	255.402
13.4	270.689
13.6	245.354
13.8	227.017
14	227.008
14.2	192.624
14.4	178.206
14.6	238.576
14.8	241.047
15	211.677
15.2	249.301
15.4	191.954
15.6	229.724
15.8	300.293
16	345.668
16.2	304.383
16.4	210.485
16.6	221.972
16.8	198.199
17	193.254
17.2	290.581
17.4	238.608
17.6	194.359
17.8	220.594
18	206.608
18.2	201.416
18.4	189.399
18.6	168.622
18.8	150.257
19	180.402
19.2	171.823
19.4	193.923
19.6	191.157
19.8	200.769
20	208.577
20.2	186.909
20.4	155.056
20.6	142.654
20.8	142.387
21	154.236
21.2	158.138
21.4	185.746
21.6	184.197
21.8	173.333
22	167.707
22.2	129.876
22.4	141.989
22.6	179.752
22.8	124.13
23	189.986
23.2	175.417
23.4	147.941
23.6	196.17
23.8	215.027
24	420.789
24.2	1748.6
24.4	1382.4
24.6	328.971
24.8	157.577
25	189.218
25.2	175.522
25.4	206.898
25.6	583.682
25.8	430.067
26	216.303
26.2	188.881
26.4	146.914
26.6	186.949
26.8	256.767
27	333.245
27.2	287.486
27.4	343.063
27.6	222.84
27.8	273.812
28	410.549
28.2	557.287
28.4	349.049
28.6	165.926
28.8	150.653
29	149.797
29.2	157.06
29.4	174.619
29.6	337.371
29.8	316.965
30	260.63
30.2	225.384
30.4	198.254
30.6	428.481
30.8	1754.09
31	8428.86
31.2	3998.18
31.4	596.229
31.6	498.91
31.8	438.423
32	574.476
32.2	590.4
32.4	815.503
32.6	970.192
32.8	487.003
33	355.164
33.2	201.334
33.4	151.19
33.6	138.868
33.8	143.783
34	124.457
34.2	156.805
34.4	214.586
34.6	148.805
34.8	157.537
35	200.279
35.2	377.657
35.4	236.878
35.6	261.821
35.8	235.386
36	213.541
36.2	176.381
36.4	168.473
36.6	103.009
36.8	78.661
37	160.562
37.2	119.081
37.4	117.774
37.6	122.938
37.8	150.89
38	114.058
38.2	48.9621
38.4	82.5093
38.6	99.7061
38.8	69.6819
39	61.7529
39.2	86.683
39.4	80.3425
39.6	129.046
39.8	135.341
40	158.678
40.2	131.53
40.4	137.347
40.6	137.086
40.8	181.768
41	198.647
41.2	118.026
41.4	143.403
41.6	99.7395
41.8	125.5
42	102.22
42.2	88.4541
42.4	165.627
42.6	507.608
42.8	458.887
43	235.548
43.2	177.552
43.4	119.556
43.6	84.4714
43.8	116.252
44	103.231
44.2	125.876
44.4	88.5194
44.6	50.1145
44.8	106.396
45	91.694
45.2	105.398
45.4	123.355
45.6	81.4694
45.8	124.983
46	264.066
46.2	541.299
46.4	169.243
46.6	84.6031
46.8	110.007
47	204.914
47.2	325.107
47.4	139.619
47.6	101.234
47.8	61.0133
48	108.86
48.2	92.4204
48.4	94.5053
48.6	93.6276
48.8	144.368
49	131.564
49.2	141.394
49.4	110.51
49.6	390.796
49.8	405.251
50	173.834
50.2	130.249
50.4	90.3084
50.6	79.1145
50.8	98.2219
51	98.1152
51.2	84.477
51.4	79.8695
51.6	83.3132
51.8	87.6768
52	59.2045
52.2	53.9832
52.4	87.7583
52.6	81.3365
52.8	130.03
53	136.162
53.2	125.57
53.4	119.821
53.6	332.619
53.8	262.818
54	150.367
54.2	83.5722
54.4	95.6728
54.6	87.5346
54.8	91.6214
54.9	99.3836

File: Mix1D-film.txt
#InstrumentID: BTX.359
#DatasetName: Mix1D
#SampleInfo:
#AcquisitionDate: 12/12/13 23:28:23
#IntegrationTime: 400 seconds
#GeometryParams: axisX = -68.5142 axisY = 134 axisZ = 1194.7 sensorAngle1 = -29.0823 sensorAngle3 = 0
#EnergyParams: splitThreshold = 12 CoKaPeak = 1280 kBFilterIn = 1
5	203.971
5.2	185.033
5.4	216.014
5.6	189.483
5.8	201.375
6	248.934
6.2	322.328
6.4	319.553
6.6	307.541
6.8	264.191
7	223.136
7.2	196.212
7.4	245.613
7.6	223.805
7.8	200.975
8	204.919
8.2	229.646
8.4	236.905
8.6	233.426
8.8	180.991
9	231.38
9.2	220.777
9.4	195.252
9.6	266.624
9.8	210.056
10	250.705
10.2	211.6
10.4	228.645
10.6	228.99
10.8	199.124
11	246.958
11.2	222.442
11.4	269.651
11.6	238.819
11.8	264.351
12	235.802
12.2	234.376
12.4	169.107
12.6	214.756
12.8	261.257
13	195.779
13.2	262.465
13.4	241.748
13.6	201.704
13.8	262.153
14	248.601
14.2	192.823
14.4	173.166
14.6	231.806
14.8	228.974
15	255.359
15.2	225.493
15.4	183.235
15.6	253.413
15.8	293.009
16	322.732
16.2	282.864
16.4	186.479
16.6	217.645
16.8	147.9
17	227.422
17.2	247.605
17.4	226.862
17.6	207.928
17.8	293.593
18	184.74
18.2	175.284
18.4	213.333
18.6	205.984
18.8	196.887
19	168.583
19.2	198.978
19.4	148.751
19.6	152.473
19.8	222.72
20	170.63
20.2	164.779
20.4	185.937
20.6	152.275
20.8	122.956
21	183.97
21.2	180.939
21.4	156.696
21.6	162.82
21.8	207.491
22	136.922
22.2	124.959
22.4	154.534
22.6	156.516
22.8	139.315
23	169.946
23.2	193.048
23.4	125.939
23.6	149.234
23.8	156.979
24	318.618
24.2	1414.62
24.4	1403.86
24.6	454.025
24.8	168.072
25	180.133
25.2	188.405
25.4	172.104
25.6	431.837
25.8	396.382
26	274.662
26.2	156.646
26.4	197.755
26.6	155.066
26.8	251.919
27	293.046
27.2	264.607
27.4	269.202
27.6	241.908
27.8	259.721
28	342.494
28.2	426.726
28.4	303.045
28.6	215.246
28.8	231.481
29	148.435
29.2	140.394
29.4	176.214
29.6	284.354
29.8	384.108
30	254.489
30.2	162.966
30.4	285.016
30.6	361.071
30.8	1570.32
31	7318.88
31.2	4121.84
31.4	679.501
31.6	585.886
31.8	562.576
32	921.919
32.2	672.394
32.4	670.444
32.6	713.488
32.8	407.086
33	298.371
33.2	177.259
33.4	123.646
33.6	155.569
33.8	104.912
34	82.4407
34.2	189.898
34.4	203.431
34.6	169.482
34.8	149.316
35	252.085
35.2	330.807
35.4	271.15
35.6	210.623
35.8	273.59
36	335.166
36.2	151.519
36.4	149.232
36.6	156.947
36.8	97.9434
37	120.685
37.2	89.5676
37.4	104.338
37.6	118.401
37.8	128.142
38	101.287
38.2	78.8248
38.4	87.4068
38.6	97.0545
38.8	66.8331
39	56.3646
39.2	75.1057
39.4	68.511
39.6	118.36
39.8	176.129
40	144.765
40.2	154.949
40.4	140.351
40.6	130.982
40.8	163.279
41	182.158
41.2	156.655
41.4	156.183
41.6	161.829
41.8	105.888
42	148.86
42.2	77.1662
42.4	167.078
42.6	464.791
42.8	426.268
43	219.71
43.2	171.77
43.4	149.098
43.6	126.272
43.8	120.249
44	108.309
44.2	125.68
44.4	116.958
44.6	68.7
44.8	79.5929
45	109.51
45.2	123.255
45.4	80.8421
45.6	84.2024
45.8	68.9649
46	270.871
46.2	501.072
46.4	273.64
46.6	41.4573
46.8	96.7319
47	205.552
47.2	292.78
47.4	148.304
47.6	96.7475
47.8	92.1957
48	77.1997
48.2	53.4935
48.4	79.5371
48.6	92.1309
48.8	159.515
49	191.209
49.2	130.119
49.4	117.689
49.6	231.979
49.8	397.291
50	197.069
50.2	98.5443
50.4	110.108
50.6	156.724
50.8	78.4485
51	81.9576
51.2	138.824
51.4	67.6494
51.6	107.744
51.8	45.8478
52	59.7049
52.2	107.137
52.4	63.8487
52.6	68.7241
52.8	77.4879
53	90.5703
53.2	92.0294
53.4	132.848
53.6	307.146
53.8	247.109
54	109.481
54.2	96.3855
54.4	87.3905
54.6	87.7579
54.8	77.2941
54.9	62.2489

File: Mix2A-film.txt
#InstrumentID: BTX.359
#DatasetName: Mix2A
#SampleInfo:
#AcquisitionDate: 12/12/13 20:20:31
#IntegrationTime: 400 seconds
#GeometryParams: axisX = -68.5142 axisY = 134 axisZ = 1194.7 sensorAngle1 = -29.0823 sensorAngle3 = 0
#EnergyParams: splitThreshold = 12 CoKaPeak = 1278 kBFilterIn = 1
5	674.055
5.2	601.797
5.4	685.273
5.6	730.239
5.8	864.358
6	912.074
6.2	1223.23
6.4	1617.92
6.6	1791.27
6.8	1672.14
7	1284.13
7.2	1142.22
7.4	847.46
7.6	676.899
7.8	545.481
8	495.001
8.2	429.337
8.4	408.825
8.6	408.521
8.8	387.226
9	413.175
9.2	367.252
9.4	367.179
9.6	373.101
9.8	399.999
10	465.556
10.2	518.338
10.4	425.191
10.6	435.932
10.8	359.753
11	334.984
11.2	404.356
11.4	362.533
11.6	286.181
11.8	317.139
12	268.869
12.2	301.534
12.4	272.395
12.6	352.486
12.8	306.416
13	339.036
13.2	332.485
13.4	275.143
13.6	312.272
13.8	322.029
14	488.446
14.2	680.893
14.4	806.517
14.6	541.116
14.8	346.766
15	329.357
15.2	280.066
15.4	306.349
15.6	317.911
15.8	317.702
16	252.701
16.2	370.168
16.4	299.232
16.6	289.066
16.8	338.167
17	332.552
17.2	242.389
17.4	310.019
17.6	243.654
17.8	338.395
18	225.74
18.2	218.714
18.4	242.54
18.6	303.897
18.8	254.999
19	200.006
19.2	290.338
19.4	255.124
19.6	265.562
19.8	264.93
20	293.97
20.2	311.58
20.4	295.843
20.6	353.943
20.8	307.363
21	268.183
21.2	251.914
21.4	247.978
21.6	188.529
21.8	267.841
22	218.984
22.2	186.648
22.4	259.745
22.6	297.181
22.8	473.875
23	967.736
23.2	1022.18
23.4	658.176
23.6	653.781
23.8	645.597
24	710.716
24.2	1189.79
24.4	904.548
24.6	592.052
24.8	666.442
25	675.347
25.2	642.11
25.4	641.475
25.6	566.474
25.8	467.604
26	453.631
26.2	400.228
26.4	490.067
26.6	539.745
26.8	474.452
27	379.416
27.2	346.543
27.4	352.487
27.6	443.667
27.8	450.596
28	387.876
28.2	352.352
28.4	257.94
28.6	311.75
28.8	496.457
29	651.587
29.2	507.907
29.4	370.645
29.6	434.083
29.8	412.612
30	267.078
30.2	327.711
30.4	293.115
30.6	409.077
30.8	1066.77
31	3999.16
31.2	2325.95
31.4	468.168
31.6	349.796
31.8	278.923
32	284.427
32.2	336.155
32.4	400.451
32.6	302.353
32.8	258.266
33	254.681
33.2	252.594
33.4	276.827
33.6	248.049
33.8	225.337
34	183.696
34.2	234.489
34.4	222.703
34.6	340.738
34.8	387.626
35	201.403
35.2	248.821
35.4	230.2
35.6	173.168
35.8	157.558
36	175.098
36.2	231.192
36.4	280.466
36.6	214.01
36.8	208.111
37	178.989
37.2	203.579
37.4	189.998
37.6	232.94
37.8	160.587
38	184.811
38.2	187.069
38.4	169.824
38.6	149.108
38.8	155.309
39	159.581
39.2	160.412
39.4	156.539
39.6	150.643
39.8	137.631
40	199.795
40.2	286.798
40.4	383.614
40.6	520.105
40.8	729.673
41	667.672
41.2	433.878
41.4	241.743
41.6	325.944
41.8	314.352
42	359.055
42.2	273.798
42.4	284.236
42.6	387.638
42.8	463.932
43	285.267
43.2	205.51
43.4	158.689
43.6	237.72
43.8	241.132
44	272.79
44.2	295.674
44.4	228.557
44.6	263.197
44.8	324.225
45	413.259
45.2	271.545
45.4	224.819
45.6	290.705
45.8	237.297
46	412.93
46.2	499.418
46.4	229.667
46.6	130.637
46.8	194.921
47	218.133
47.2	250.259
47.4	179.063
47.6	123.985
47.8	127.779
48	176.198
48.2	216.569
48.4	209.64
48.6	152.173
48.8	167.384
49	209.344
49.2	190.956
49.4	224.834
49.6	286.043
49.8	288.649
50	193.658
50.2	146.005
50.4	122.729
50.6	131.648
50.8	126.896
51	141.102
51.2	134.406
51.4	128.874
51.6	118.509
51.8	139.413
52	110.082
52.2	181.397
52.4	150.224
52.6	135.956
52.8	91.5649
53	144.031
53.2	202.367
53.4	210.1
53.6	195.633
53.8	203.406
54	149.296
54.2	118.853
54.4	115.03
54.6	122.691
54.8	158.02
54.9	176.975

File: Mix2B-film.txt
#InstrumentID: BTX.359
#DatasetName: MixB
#SampleInfo:
#AcquisitionDate: 12/12/13 20:38:01
#IntegrationTime: 400 seconds
#GeometryParams: axisX = -68.5142 axisY = 134 axisZ = 1194.7 sensorAngle1 = -29.0823 sensorAngle3 = 0
#EnergyParams: splitThreshold = 12 CoKaPeak = 1280 kBFilterIn = 1
5	467.132
5.2	450.124
5.4	410.833
5.6	452.165
5.8	491.483
6	535.825
6.2	575.631
6.4	742.275
6.6	827.655
6.8	792.378
7	719.035
7.2	638.52
7.4	468.464
7.6	419.075
7.8	375.91
8	418.628
8.2	344.844
8.4	350.71
8.6	360.063
8.8	305.797
9	320.681
9.2	329.17
9.4	289.586
9.6	362.316
9.8	374.726
10	379.539
10.2	455.665
10.4	365.507
10.6	253.673
10.8	311.905
11	260.628
11.2	263.097
11.4	273.358
11.6	286.497
11.8	262.126
12	271.321
12.2	245.173
12.4	277.952
12.6	266.426
12.8	312.917
13	311.17
13.2	321.648
13.4	277.002
13.6	256.642
13.8	284.114
14	417.457
14.2	606.54
14.4	611.126
14.6	374.055
14.8	323.983
15	291.471
15.2	273.679
15.4	290.999
15.6	314.223
15.8	259.295
16	254.055
16.2	252.751
16.4	187.567
16.6	240.66
16.8	280.46
17	205.453
17.2	224.931
17.4	247.97
17.6	258.458
17.8	241.221
18	268.496
18.2	246.54
18.4	247.545
18.6	235.164
18.8	177.32
19	196.311
19.2	220.867
19.4	232.622
19.6	237.857
19.8	224.871
20	212.845
20.2	231.916
20.4	227.877
20.6	269.463
20.8	202.792
21	200.396
21.2	185.342
21.4	201.681
21.6	241.048
21.8	288.732
22	207.77
22.2	184.535
22.4	161.646
22.6	231.28
22.8	368.635
23	696.638
23.2	771.447
23.4	456.376
23.6	485.518
23.8	492.137
24	616.554
24.2	1705.42
24.4	1380.07
24.6	524.224
24.8	462.179
25	433.539
25.2	402.876
25.4	307.193
25.6	319.064
25.8	310.498
26	328.189
26.2	229.294
26.4	328.331
26.6	340.349
26.8	310.235
27	263.791
27.2	268.49
27.4	234.128
27.6	235.633
27.8	325.725
28	222.146
28.2	218.327
28.4	194.437
28.6	215.337
28.8	416.217
29	515.734
29.2	382.363
29.4	320.201
29.6	337.564
29.8	293.806
30	296.822
30.2	202.367
30.4	277.76
30.6	349.17
30.8	1480.1
31	7455.27
31.2	4333.5
31.4	531.612
31.6	269.409
31.8	225.164
32	188.762
32.2	261.107
32.4	318.002
32.6	283.037
32.8	228.943
33	203.002
33.2	129.342
33.4	207.664
33.6	214.283
33.8	172.709
34	203.594
34.2	157.086
34.4	165.551
34.6	202.222
34.8	209.609
35	201.124
35.2	186.176
35.4	137.25
35.6	144.773
35.8	152.587
36	142.488
36.2	137.86
36.4	198.198
36.6	178.432
36.8	126.626
37	126.081
37.2	195.332
37.4	212.566
37.6	165.96
37.8	186.319
38	178.894
38.2	112.746
38.4	119.805
38.6	162.738
38.8	86.7032
39	94.7355
39.2	142.396
39.4	130.132
39.6	105.87
39.8	135.426
40	136.546
40.2	147.971
40.4	237.821
40.6	275.055
40.8	486.072
41	461.291
41.2	205.189
41.4	260.092
41.6	206.806
41.8	257.52
42	294.973
42.2	296.528
42.4	213.618
42.6	600.038
42.8	617.057
43	263.071
43.2	144.456
43.4	128.966
43.6	150.902
43.8	172.512
44	189.752
44.2	224.387
44.4	183.097
44.6	135.919
44.8	274.448
45	319.079
45.2	270.997
45.4	166.438
45.6	196.645
45.8	164.161
46	409.548
46.2	779.706
46.4	325.349
46.6	99.1587
46.8	158.783
47	301.628
47.2	333.045
47.4	198.326
47.6	158.672
47.8	184.796
48	108.071
48.2	160.304
48.4	127.048
48.6	98.0811
48.8	144.364
49	121.839
49.2	163.877
49.4	168.758
49.6	371.705
49.8	382.524
50	163.576
50.2	125.032
50.4	57.9554
50.6	130.893
50.8	133.346
51	70.0856
51.2	84.4121
51.4	167.379
51.6	99.1998
51.8	101.788
52	59.5865
52.2	96.6538
52.4	109.568
52.6	104.714
52.8	102.193
53	79.0208
53.2	151.497
53.4	160.936
53.6	292.893
53.8	321.727
54	133.65
54.2	124.545
54.4	101.375
54.6	82.3787
54.8	127.558
54.9	117.631

File: Mix2C-film.txt
#InstrumentID: BTX.359
#DatasetName: Mix2C
#SampleInfo:
#AcquisitionDate: 12/12/13 21:00:36
#IntegrationTime: 400 seconds
#GeometryParams: axisX = -68.5142 axisY = 134 axisZ = 1194.7 sensorAngle1 = -29.0823 sensorAngle3 = 0
#EnergyParams: splitThreshold = 12 CoKaPeak = 1280 kBFilterIn = 1
5	549.186
5.2	551.293
5.4	618.172
5.6	547.9
5.8	672.816
6	835.701
6.2	1119.96
6.4	1354.83
6.6	1546.4
6.8	1447.63
7	1269.37
7.2	988.557
7.4	746.732
7.6	581.564
7.8	468.54
8	468.473
8.2	407.759
8.4	437.884
8.6	350.572
8.8	387.752
9	395.871
9.2	330.912
9.4	375.162
9.6	407.402
9.8	323.508
10	366.163
10.2	403.073
10.4	387.583
10.6	341.433
10.8	300.099
11	312.816
11.2	233.974
11.4	353.37
11.6	303.067
11.8	283.706
12	259.468
12.2	326.908
12.4	331.78
12.6	291.766
12.8	332.928
13	283.477
13.2	320.061
13.4	264.807
13.6	291.736
13.8	351.34
14	448.494
14.2	717.734
14.4	713.426
14.6	466.614
14.8	297.829
15	312.826
15.2	364.075
15.4	261.776
15.6	266.815
15.8	275.995
16	265.827
16.2	266.963
16.4	280.161
16.6	320.637
16.8	266.374
17	303.095
17.2	228.836
17.4	239.07
17.6	272.635
17.8	278.423
18	308.566
18.2	228.912
18.4	197.303
18.6	248.451
18.8	247.663
19	250.688
19.2	255.163
19.4	285.681
19.6	268.711
19.8	253.882
20	284.757
20.2	263.048
20.4	280.352
20.6	262.393
20.8	305.133
21	277.021
21.2	218.901
21.4	228.292
21.6	238.491
21.8	266.992
22	298.307
22.2	236.474
22.4	204.242
22.6	265.467
22.8	408.342
23	824.946
23.2	881.56
23.4	592.166
23.6	630.068
23.8	564.72
24	736.337
24.2	1290.21
24.4	1107.58
24.6	617.368
24.8	614.151
25	595.697
25.2	631.495
25.4	574.594
25.6	440.486
25.8	426.227
26	383.321
26.2	327.273
26.4	437.259
26.6	405.51
26.8	450.562
27	357.077
27.2	295.549
27.4	267.556
27.6	361.301
27.8	325.674
28	274.767
28.2	279.807
28.4	277.779
28.6	281.354
28.8	474.416
29	550.035
29.2	431.453
29.4	322.205
29.6	354.557
29.8	439.7
30	270.698
30.2	265.095
30.4	323.048
30.6	389.576
30.8	1110.82
31	5437.27
31.2	2866.2
31.4	453.412
31.6	273.067
31.8	225.981
32	316.222
32.2	238.73
32.4	353.615
32.6	270.778
32.8	235.461
33	232.844
33.2	269.116
33.4	240.252
33.6	199.284
33.8	211.714
34	172.504
34.2	226.877
34.4	258.568
34.6	215.806
34.8	234.038
35	239.45
35.2	154.718
35.4	137.445
35.6	142.953
35.8	164.921
36	200.529
36.2	158.279
36.4	170.683
36.6	212.526
36.8	160.151
37	135.705
37.2	179.663
37.4	211.153
37.6	155.756
37.8	130.501
38	163.05
38.2	162.754
38.4	114.525
38.6	115.188
38.8	98.8543
39	85.7912
39.2	136.929
39.4	161.168
39.6	165.421
39.8	159.485
40	158.644
40.2	173.103
40.4	286.657
40.6	372.19
40.8	624.033
41	516.384
41.2	334.135
41.4	287.584
41.6	290.8
41.8	296.41
42	353.498
42.2	326.52
42.4	262.616
42.6	588.452
42.8	587.574
43	247.116
43.2	198.154
43.4	158.761
43.6	168.341
43.8	201.529
44	259.199
44.2	275.626
44.4	184
44.6	252.828
44.8	328.705
45	306.15
45.2	287.799
45.4	195.731
45.6	210.554
45.8	232.03
46	455.512
46.2	518.25
46.4	226.781
46.6	192.083
46.8	187.123
47	239.111
47.2	343.884
47.4	166.427
47.6	131.937
47.8	102.288
48	129.893
48.2	145.168
48.4	178.189
48.6	126.386
48.8	144.885
49	159.1
49.2	184.575
49.4	224.879
49.6	317.163
49.8	343.731
50	188.73
50.2	111.435
50.4	106.976
50.6	121.347
50.8	97.9417
51	125.899
51.2	133.195
51.4	67.0141
51.6	138.463
51.8	144.64
52	74.9958
52.2	117.253
52.4	107.803
52.6	128.755
52.8	124.303
53	102.72
53.2	156.964
53.4	177.02
53.6	264.987
53.8	285.184
54	140.346
54.2	133.554
54.4	175.531
54.6	76.0811
54.8	152.48
54.9	155.558

File: Mix2D-film.txt
#InstrumentID: BTX.359
#DatasetName: Mix2D
#SampleInfo:
#AcquisitionDate: 12/12/13 21:48:22
#IntegrationTime: 400 seconds
#GeometryParams: axisX = -68.5142 axisY = 134 axisZ = 1194.7 sensorAngle1 = -29.0823 sensorAngle3 = 0
#EnergyParams: splitThreshold = 12 CoKaPeak = 1281 kBFilterIn = 1
5	733.648
5.2	712.803
5.4	679.986
5.6	692.813
5.8	784.693
6	928.365
6.2	1090.58
6.4	1506.65
6.6	1769.01
6.8	1750.74
7	1509.03
7.2	1294.99
7.4	1080.01
7.6	816.724
7.8	684.489
8	569.712
8.2	519.542
8.4	566.389
8.6	401.857
8.8	399.65
9	386.52
9.2	419.126
9.4	380.987
9.6	375.206
9.8	391.619
10	445.198
10.2	508.676
10.4	430.216
10.6	330.929
10.8	330.952
11	265.463
11.2	340.49
11.4	283.73
11.6	321.686
11.8	317.923
12	293.006
12.2	304.963
12.4	286.187
12.6	291.632
12.8	274.354
13	319.083
13.2	355.582
13.4	364.018
13.6	288.765
13.8	324.188
14	466.088
14.2	855.416
14.4	960.583
14.6	563.746
14.8	375.325
15	308.561
15.2	318.882
15.4	305.211
15.6	321.471
15.8	248.209
16	285.695
16.2	281.177
16.4	259.597
16.6	346.981
16.8	343.343
17	320.865
17.2	331.334
17.4	259.131
17.6	289.084
17.8	302.174
18	283.254
18.2	314.01
18.4	269.679
18.6	257.886
18.8	250.749
19	269.003
19.2	246.667
19.4	277.883
19.6	280.637
19.8	301.55
20	335.593
20.2	240.871
20.4	338.669
20.6	348.467
20.8	323.718
21	244.54
21.2	263.093
21.4	272.242
21.6	306.669
21.8	265.108
22	217.262
22.2	294.773
22.4	249.979
22.6	326.438
22.8	511.793
23	1100.79
23.2	1206.03
23.4	845.855
23.6	913.288
23.8	816.012
24	719.24
24.2	879.826
24.4	839.776
24.6	652.551
24.8	703.479
25	725.123
25.2	654.433
25.4	626.186
25.6	571.314
25.8	574.433
26	484.893
26.2	583.499
26.4	558.511
26.6	538.175
26.8	488.694
27	475.12
27.2	361.761
27.4	406.467
27.6	498.422
27.8	416.004
28	370.173
28.2	336.811
28.4	310.512
28.6	368.063
28.8	532.515
29	820.75
29.2	537.048
29.4	490.247
29.6	491.794
29.8	418.321
30	372.441
30.2	358.894
30.4	323.934
30.6	362.579
30.8	703.591
31	2302.4
31.2	1511.32
31.4	409.194
31.6	298.265
31.8	316.754
32	372.909
32.2	276.38
32.4	369.49
32.6	387.159
32.8	324.148
33	220.724
33.2	231.045
33.4	242.496
33.6	262.472
33.8	245.581
34	275.638
34.2	276.994
34.4	250.788
34.6	373.644
34.8	300.233
35	341.156
35.2	215.704
35.4	176.486
35.6	223.56
35.8	242.024
36	254.65
36.2	239.238
36.4	295.441
36.6	226.37
36.8	238.342
37	205.608
37.2	207.032
37.4	250.125
37.6	231.831
37.8	214.562
38	202.419
38.2	187.792
38.4	185.746
38.6	162.523
38.8	132.573
39	187.474
39.2	176.16
39.4	184.62
39.6	192.799
39.8	187.931
40	197.783
40.2	292.835
40.4	413.147
40.6	523.913
40.8	865.271
41	754.735
41.2	418.439
41.4	350.335
41.6	324.054
41.8	328.213
42	526.468
42.2	310.856
42.4	307.716
42.6	404.328
42.8	413.265
43	314.762
43.2	282.974
43.4	210.278
43.6	242.037
43.8	283.078
44	365.432
44.2	349.921
44.4	327.583
44.6	305.24
44.8	413.256
45	409.327
45.2	383.164
45.4	263.246
45.6	237.984
45.8	328.919
46	342.058
46.2	315.639
46.4	204.507
46.6	206.775
46.8	247.843
47	271.935
47.2	253.662
47.4	218.163
47.6	164.511
47.8	271.475
48	258.934
48.2	192.043
48.4	205.25
48.6	174.239
48.8	193.452
49	213.383
49.2	198.333
49.4	263.082
49.6	313.761
49.8	332.395
50	200.686
50.2	140.93
50.4	188.943
50.6	137.828
50.8	187.39
51	182.88
51.2	156.299
51.4	118.564
51.6	143.944
51.8	167.549
52	132.406
52.2	120.431
52.4	146.868
52.6	154.142
52.8	174.158
53	205.738
53.2	215.858
53.4	212.884
53.6	258.55
53.8	176.344
54	213.979
54.2	172.504
54.4	138.281
54.6	151.193
54.8	224.555
54.9	201.413