Folder: quantdatavision/desktop/XRD_data/Chemin-CSV

Note: README.md
# quantdatavision
Mining data visualization

Playing with cristallography and diffraction analysis

File: cma_408288091rda01220050926ch11520p1_berylQuartz3-97_2.csv
#2-THETA,#INTENSITY
3,378
3.2,272
3.4,232
3.6,229
3.8,189
4,197
4.2,242
4.4,139
4.6,184
4.8,193
5,190
5.2,187
5.4,232
5.6,220
5.8,370
6,375
6.2,705
6.4,967
6.6,1068
6.8,770
7,418
7.2,283
7.4,227
7.6,164
7.8,150
8,171
8.2,201
8.4,177
8.6,175
8.8,154
9,189
9.2,135
9.4,192
9.6,147
9.8,143
10,177
10.2,151
10.4,169
10.6,149
10.8,156
11,159
11.2,198
11.4,190
11.6,410
11.8,360
12,245
12.2,254
12.4,264
12.6,398
12.8,7810
13,5779
13.2,381
13.4,244
13.6,236
13.8,165
14,164
14.2,148
14.4,174
14.6,174
14.8,133
15,221
15.2,201
15.4,205
15.6,206
15.8,208
16,254
16.2,274
16.4,248
16.6,312
16.8,267
17,292
17.2,218
17.4,254
17.6,245
17.8,246
18,261
18.2,227
18.4,254
18.6,198
18.8,276
19,222
19.2,301
19.4,268
19.6,261
19.8,254
20,267
20.2,277
20.4,315
20.6,256
20.8,259
21,262
21.2,291
21.4,306
21.6,265
21.8,277
22,302
22.2,567
22.4,2799
22.6,1388
22.8,350
23,303
23.2,266
23.4,344
23.6,351
23.8,304
24,296
24.2,313
24.4,332
24.6,261
24.8,304
25,254
25.2,302
25.4,408
25.6,452
25.8,1558
26,3094
26.2,932
26.4,264
26.6,270
26.8,267
27,237
27.2,248
27.4,224
27.6,242
27.8,244
28,260
28.2,220
28.4,244
28.6,249
28.8,372
29,316
29.2,210
29.4,227
29.6,251
29.8,254
30,258
30.2,256
30.4,265
30.6,280
30.8,293
31,421
31.2,428
31.4,283
31.6,391
31.8,2940
32,4634
32.2,1249
32.4,271
32.6,292
32.8,349
33,349
33.2,236
33.4,244
33.6,246
33.8,221
34,207
34.2,260
34.4,853
34.6,1637
34.8,759
35,265
35.2,217
35.4,250
35.6,221
35.8,273
36,270
36.2,1450
36.4,4685
36.6,2979
36.8,390
37,224
37.2,171
37.4,202
37.6,205
37.8,186
38,206
38.2,177
38.4,174
38.6,196
38.8,162
39,155
39.2,162
39.4,224
39.6,191
39.8,157
40,144
40.2,159
40.4,145
40.6,156
40.8,171
41,176
41.2,197
41.4,481
41.6,1337
41.8,908
42,232
42.2,168
42.4,176
42.6,176
42.8,178
43,143
43.2,160
43.4,139
43.6,158
43.8,153
44,192
44.2,148
44.4,178
44.6,168
44.8,127
45,164
45.2,163
45.4,175
45.6,172
45.8,374
46,430
46.2,226
46.4,184
46.6,143
46.8,169
47,146
47.2,150
47.4,178
47.6,191
47.8,330
48,318
48.2,202
48.4,149
48.6,137
48.8,195
49,217
49.2,694
49.4,590
49.6,204
49.8,146
50,168
50.2,170
50.4,140
50.6,180
50.8,196
51,182
51.2,185
51.4,158
51.6,327
51.8,370
51.95,252

File: cma_414856883rda01960060000ch12240p1_JohnKlein1.csv
#2-THETA,#INTENSITY
3,7335
3.2,7175
3.4,6346
3.6,5277
3.8,5952
4,4853
4.2,3885
4.4,4123
4.6,3308
4.8,3863
5,3264
5.2,3319
5.4,3248
5.6,3185
5.8,3016
6,2953
6.2,2893
6.4,2692
6.6,2622
6.8,2670
7,2496
7.2,2731
7.4,2612
7.6,2842
7.8,2658
8,2539
8.2,2622
8.4,2735
8.6,2435
8.8,2955
9,2405
9.2,2575
9.4,2446
9.6,2494
9.8,2588
10,2819
10.2,2764
10.4,2660
10.6,2408
10.8,2274
11,2079
11.2,1753
11.4,1632
11.6,1738
11.8,1486
12,1482
12.2,1581
12.4,1457
12.6,1655
12.8,1428
13,1561
13.2,1585
13.4,1316
13.6,1628
13.8,1481
14,1435
14.2,1529
14.4,1575
14.6,1546
14.8,1529
15,1535
15.2,1507
15.4,1526
15.6,1791
15.8,2047
16,2360
16.2,1653
16.4,1694
16.6,1573
16.8,1704
17,2266
17.2,1734
17.4,1783
17.6,1922
17.8,1942
18,1910
18.2,1915
18.4,1916
18.6,1985
18.8,2041
19,1963
19.2,2033
19.4,1826
19.6,1823
19.8,1950
20,1903
20.2,1855
20.4,1828
20.6,1784
20.8,1824
21,1757
21.2,2276
21.4,1967
21.6,1907
21.8,1949
22,2106
22.2,2226
22.4,2676
22.6,2551
22.8,2252
23,2397
23.2,2609
23.4,2325
23.6,2161
23.8,2293
24,2152
24.2,2140
24.4,2169
24.6,2150
24.8,2217
25,2369
25.2,2607
25.4,4861
25.6,5574
25.8,2671
26,2208
26.2,2409
26.4,2723
26.6,3086
26.8,2485
27,2159
27.2,2374
27.4,4168
27.6,4344
27.8,2800
28,2359
28.2,3001
28.4,3490
28.6,2526
28.8,2210
29,2359
29.2,2754
29.4,3514
29.6,4429
29.8,3479
30,2707
30.2,2611
30.4,2288
30.6,2809
30.8,3056
31,3068
31.2,2757
31.4,2428
31.6,2569
31.8,2993
32,4682
32.2,8697
32.4,9599
32.6,7556
32.8,4001
33,3398
33.2,2976
33.4,1999
33.6,2035
33.8,2079
34,2108
34.2,2575
34.4,4244
34.6,5177
34.8,3995
35,3791
35.2,4188
35.4,3506
35.6,3324
35.8,3608
36,3653
36.2,2407
36.4,2320
36.6,3032
36.8,2535
37,2551
37.2,2651
37.4,2483
37.6,2118
37.8,1912
38,1751
38.2,1917
38.4,1919
38.6,2094
38.8,1608
39,1719
39.2,1817
39.4,2002
39.6,1968
39.8,2065
40,1973
40.2,2151
40.4,2338
40.6,3043
40.8,3251
41,3006
41.2,4329
41.4,6915
41.6,6188
41.8,3803
42,3158
42.2,3221
42.4,2814
42.6,2340
42.8,2053
43,1787
43.2,1763
43.4,1840
43.6,1877
43.8,1703
44,1639
44.2,1724
44.4,1615
44.6,1569
44.8,1722
45,1621
45.2,1820
45.4,1628
45.6,1721
45.8,1866
46,1892
46.2,1876
46.4,1668
46.6,1693
46.8,1625
47,1515
47.2,1456
47.4,1938
47.6,1890
47.8,1915
48,1772
48.2,1630
48.4,1709
48.6,1570
48.8,1668
49,1765
49.2,1754
49.4,2206
49.6,2016
49.8,2012
50,1926
50.2,1749
50.4,1858
50.6,1954
50.8,1667
51,1362
51.2,1490
51.4,1256
51.6,1428
51.8,1628
51.95,1493

File: cma_414856883rda01960060000ch12240p2_JohnKlein2.csv
#2-THETA,#INTENSITY
3,8733
3.2,7835
3.4,6606
3.6,5190
3.8,5799
4,4827
4.2,4116
4.4,3939
4.6,3369
4.8,3724
5,3036
5.2,2972
5.4,2989
5.6,2774
5.8,2917
6,2710
6.2,2711
6.4,2478
6.6,2545
6.8,2516
7,2493
7.2,2485
7.4,2405
7.6,2516
7.8,2484
8,2532
8.2,2528
8.4,2550
8.6,2280
8.8,2531
9,2284
9.2,2450
9.4,2308
9.6,2418
9.8,2429
10,2548
10.2,2452
10.4,2402
10.6,2148
10.8,2182
11,1826
11.2,1547
11.4,1576
11.6,1520
11.8,1464
12,1375
12.2,1395
12.4,1436
12.6,1433
12.8,1415
13,1427
13.2,1364
13.4,1428
13.6,1441
13.8,1442
14,1423
14.2,1425
14.4,1375
14.6,1298
14.8,1346
15,1434
15.2,1384
15.4,1430
15.6,1487
15.8,1966
16,2110
16.2,1672
16.4,1549
16.6,1453
16.8,1614
17,2070
17.2,1729
17.4,1623
17.6,1778
17.8,1696
18,1638
18.2,1757
18.4,1753
18.6,1774
18.8,1800
19,1740
19.2,1836
19.4,1724
19.6,1757
19.8,1757
20,1747
20.2,1650
20.4,1678
20.6,1645
20.8,1693
21,1691
21.2,2007
21.4,1871
21.6,1730
21.8,1792
22,1942
22.2,2057
22.4,2501
22.6,2393
22.8,2180
23,2265
23.2,2342
23.4,2117
23.6,1980
23.8,2063
24,1958
24.2,2008
24.4,1955
24.6,1962
24.8,2080
25,2146
25.2,2353
25.4,4648
25.6,5149
25.8,2402
26,2000
26.2,2164
26.4,2529
26.6,2766
26.8,2247
27,1993
27.2,2210
27.4,3820
27.6,4119
27.8,2550
28,2177
28.2,2753
28.4,3098
28.6,2293
28.8,2059
29,2172
29.2,2508
29.4,3599
29.6,4338
29.8,3285
30,2634
30.2,2315
30.4,2129
30.6,2492
30.8,2845
31,2719
31.2,2533
31.4,2342
31.6,2315
31.8,2801
32,4427
32.2,8479
32.4,9607
32.6,7236
32.8,3753
33,3124
33.2,2748
33.4,1885
33.6,1839
33.8,1868
34,1981
34.2,2281
34.4,3969
34.6,4705
34.8,3581
35,3313
35.2,3781
35.4,3247
35.6,3030
35.8,3386
36,3258
36.2,2172
36.4,2232
36.6,2833
36.8,2397
37,2380
37.2,2573
37.4,2381
37.6,1917
37.8,1674
38,1637
38.2,1809
38.4,1794
38.6,1827
38.8,1564
39,1575
39.2,1658
39.4,1802
39.6,1766
39.8,1773
40,1815
40.2,1844
40.4,2116
40.6,2673
40.8,3023
41,2691
41.2,3754
41.4,6429
41.6,5686
41.8,3485
42,2799
42.2,2876
42.4,2596
42.6,2093
42.8,1980
43,1737
43.2,1573
43.4,1737
43.6,1673
43.8,1603
44,1477
44.2,1505
44.4,1446
44.6,1479
44.8,1479
45,1536
45.2,1646
45.4,1567
45.6,1551
45.8,1717
46,1835
46.2,1626
46.4,1520
46.6,1467
46.8,1424
47,1395
47.2,1456
47.4,1627
47.6,1776
47.8,1776
48,1610
48.2,1434
48.4,1396
48.6,1469
48.8,1498
49,1508
49.2,1703
49.4,2016
49.6,1920
49.8,1754
50,1777
50.2,1630
50.4,1758
50.6,1774
50.8,1488
51,1226
51.2,1240
51.4,1225
51.6,1158
51.8,1358
51.95,1475

File: cmb_422579177rda02830060082ch12350p1_Cumberland.csv
#2-THETA,#INTENSITY
3,7808
3.2,6676
3.4,5829
3.6,4899
3.8,5052
4,4504
4.2,3520
4.4,3696
4.6,3196
4.8,3309
5,2906
5.2,3025
5.4,2767
5.6,2917
5.8,2665
6,2654
6.2,2727
6.4,2842
6.6,2850
6.8,2965
7,3234
7.2,2989
7.4,2881
7.6,2856
7.8,2932
8,2719
8.2,2575
8.4,2341
8.6,2254
8.8,2269
9,2125
9.2,1897
9.4,1899
9.6,1963
9.8,1879
10,1951
10.2,1748
10.4,1711
10.6,1643
10.8,1679
11,1516
11.2,1443
11.4,1401
11.6,1360
11.8,1234
12,1208
12.2,1164
12.4,1190
12.6,1324
12.8,1156
13,1149
13.2,1217
13.4,1202
13.6,1274
13.8,1342
14,1220
14.2,1163
14.4,1206
14.6,1144
14.8,1158
15,1268
15.2,1205
15.4,1192
15.6,1272
15.8,1582
16,1969
16.2,1478
16.4,1341
16.6,1268
16.8,1359
17,1687
17.2,1422
17.4,1381
17.6,1590
17.8,1418
18,1425
18.2,1634
18.4,1576
18.6,1586
18.8,1574
19,1628
19.2,1612
19.4,1633
19.6,1581
19.8,1454
20,1556
20.2,1514
20.4,1576
20.6,1541
20.8,1453
21,1517
21.2,1904
21.4,1788
21.6,1545
21.8,1569
22,1722
22.2,1881
22.4,2454
22.6,2206
22.8,2058
23,2123
23.2,2033
23.4,1892
23.6,1804
23.8,1900
24,1814
24.2,1788
24.4,1821
24.6,1861
24.8,1789
25,1864
25.2,2064
25.4,4252
25.6,5125
25.8,2174
26,1804
26.2,1768
26.4,2004
26.6,2422
26.8,1884
27,1723
27.2,2018
27.4,3288
27.6,3966
27.8,2234
28,1977
28.2,2304
28.4,2893
28.6,2206
28.8,1757
29,1816
29.2,2006
29.4,2217
29.6,2499
29.8,2605
30,2337
30.2,2028
30.4,1860
30.6,2271
30.8,2545
31,2397
31.2,2439
31.4,2124
31.6,2085
31.8,2460
32,4013
32.2,8177
32.4,9658
32.6,7220
32.8,3480
33,2690
33.2,2468
33.4,1505
33.6,1447
33.8,1614
34,1606
34.2,1778
34.4,3500
34.6,4330
34.8,3466
35,3406
35.2,3938
35.4,2950
35.6,2773
35.8,3306
36,3343
36.2,1912
36.4,1656
36.6,2115
36.8,1933
37,1756
37.2,2074
37.4,1718
37.6,1574
37.8,1398
38,1371
38.2,1555
38.4,1510
38.6,1587
38.8,1261
39,1250
39.2,1361
39.4,1599
39.6,1415
39.8,1548
40,1595
40.2,1570
40.4,1833
40.6,2581
40.8,3032
41,2314
41.2,2857
41.4,6873
41.6,6507
41.8,3358
42,2383
42.2,2321
42.4,2038
42.6,1594
42.8,1717
43,1473
43.2,1286
43.4,1518
43.6,1466
43.8,1301
44,1203
44.2,1272
44.4,1144
44.6,1155
44.8,1134
45,1068
45.2,1090
45.4,1163
45.6,1202
45.8,1455
46,1418
46.2,1227
46.4,1136
46.6,1122
46.8,1215
47,1078
47.2,1096
47.4,1222
47.6,1351
47.8,1247
48,1209
48.2,1049
48.4,980
48.6,1053
48.8,1108
49,1168
49.2,1332
49.4,1866
49.6,1762
49.8,1468
50,1525
50.2,1358
50.4,1429
50.6,1865
50.8,1314
51,982
51.2,997
51.4,893
51.6,945
51.8,958
51.95,1019

File: cmb_452848863rda06240311330ch00111p1_Windjana.csv
#2-THETA,#INTENSITY
3,3017
3.196,2878
3.392,2405
3.588,2050
3.784,1875
3.98,1569
4.176,1822
4.372,1414
4.568,1454
4.764,1238
4.96,1229
5.156,1172
5.352,1182
5.548,1086
5.744,1050
5.94,955
6.136,927
6.332,850
6.528,923
6.724,888
6.92,864
7.116,808
7.312,763
7.508,858
7.704,738
7.9,773
8.096,783
8.292,682
8.488,667
8.684,719
8.88,707
9.076,682
9.272,651
9.468,675
9.664,646
9.86,688
10.056,706
10.252,775
10.448,664
10.644,639
10.84,593
11.036,592
11.232,542
11.428,567
11.624,502
11.82,527
12.016,502
12.212,505
12.408,502
12.604,519
12.8,495
12.996,511
13.192,479
13.388,500
13.584,532
13.78,575
13.976,549
14.172,500
14.368,517
14.564,500
14.76,532
14.956,499
15.152,502
15.348,544
15.544,564
15.74,721
15.936,667
16.132,584
16.328,496
16.524,495
16.72,510
16.916,521
17.112,569
17.308,570
17.504,671
17.7,587
17.896,546
18.092,574
18.288,587
18.484,620
18.68,635
18.876,621
19.072,678
19.268,634
19.464,603
19.66,613
19.856,608
20.052,648
20.248,582
20.444,617
20.64,581
20.836,580
21.032,643
21.228,834
21.424,714
21.62,582
21.816,610
22.012,678
22.208,669
22.404,728
22.6,699
22.796,730
22.992,745
23.188,726
23.384,714
23.58,681
23.776,659
23.972,721
24.168,806
24.364,1141
24.56,925
24.756,770
24.952,690
25.148,637
25.344,700
25.54,898
25.736,709
25.932,711
26.128,826
26.324,866
26.52,781
26.716,703
26.912,666
27.108,1015
27.304,1510
27.5,1038
27.696,844
27.892,734
28.088,726
28.284,748
28.48,814
28.676,796
28.872,705
29.068,742
29.264,815
29.46,918
29.656,924
29.852,1139
30.048,1057
30.244,803
30.44,776
30.636,758
30.832,917
31.028,1412
31.224,1817
31.42,1561
31.616,1497
31.812,1489
32.008,1887
32.204,2041
32.4,1398
32.596,1244
32.792,857
32.988,738
33.184,713
33.38,676
33.576,672
33.772,688
33.968,712
34.164,741
34.36,1220
34.556,3230
34.752,3172
34.948,1876
35.144,1913
35.34,1700
35.536,1238
35.732,1622
35.928,1817
36.124,1322
36.32,807
36.516,699
36.712,694
36.908,758
37.104,764
37.3,899
37.496,961
37.692,844
37.888,756
38.084,806
38.28,791
38.476,732
38.672,658
38.868,636
39.064,607
39.26,668
39.456,627
39.652,704
39.848,781
40.044,837
40.24,933
40.436,1217
40.632,1654
40.828,1509
41.024,1455
41.22,3011
41.416,4641
41.612,3058
41.808,1757
42.004,1107
42.2,1042
42.396,1251
42.592,970
42.788,764
42.984,796
43.18,814
43.376,763
43.572,639
43.768,708
43.964,694
44.16,640
44.356,614
44.552,614
44.748,601
44.944,617
45.14,658
45.336,688
45.532,682
45.728,745
45.924,798
46.12,784
46.316,711
46.512,682
46.708,601
46.904,582
47.1,615
47.296,701
47.492,840
47.688,903
47.884,818
48.08,743
48.276,660
48.472,727
48.668,854
48.864,737
49.06,767
49.256,902
49.452,1156
49.648,1042
49.844,865
50.04,786
50.236,884
50.432,1181
50.628,1117
50.824,799
51.02,664
51.216,668
51.412,651
51.608,681
51.804,729
51.951,912

File: cmb_463252317rda07410410838ch00111p1_berylQuartz3-97.csv
#2-THETA,#INTENSITY
3,82
3.196,84
3.392,77
3.588,84
3.784,67
3.98,50
4.176,72
4.372,79
4.568,61
4.764,58
4.96,65
5.156,81
5.352,65
5.548,82
5.744,110
5.94,137
6.136,201
6.332,288
6.528,315
6.724,250
6.92,167
7.116,98
7.312,80
7.508,72
7.704,60
7.9,66
8.096,63
8.292,60
8.488,56
8.684,52
8.88,63
9.076,64
9.272,71
9.468,58
9.664,58
9.86,60
10.056,62
10.252,55
10.448,57
10.644,52
10.84,56
11.036,54
11.232,64
11.428,65
11.624,355
11.82,167
12.016,139
12.212,141
12.408,147
12.604,252
12.8,5080
12.996,3635
13.192,157
13.388,101
13.584,69
13.78,60
13.976,66
14.172,66
14.368,63
14.564,71
14.76,78
14.956,70
15.152,75
15.348,77
15.544,76
15.74,81
15.936,76
16.132,95
16.328,100
16.524,77
16.72,96
16.916,94
17.112,90
17.308,99
17.504,95
17.7,98
17.896,87
18.092,87
18.288,87
18.484,97
18.68,91
18.876,97
19.072,94
19.268,96
19.464,91
19.66,96
19.856,86
20.052,97
20.248,157
20.444,137
20.64,92
20.836,106
21.032,103
21.228,97
21.424,105
21.62,106
21.816,119
22.012,118
22.208,324
22.404,1936
22.6,792
22.796,118
22.992,116
23.188,106
23.384,159
23.58,165
23.776,110
23.972,99
24.168,117
24.364,128
24.56,109
24.756,102
24.952,110
25.148,112
25.344,118
25.54,173
25.736,514
25.932,2110
26.128,754
26.324,122
26.52,112
26.716,103
26.912,86
27.108,100
27.304,89
27.5,97
27.696,90
27.892,84
28.088,85
28.284,93
28.48,96
28.676,151
28.872,254
29.068,125
29.264,116
29.46,106
29.656,115
29.852,106
30.048,117
30.244,110
30.44,121
30.636,116
30.832,160
31.028,285
31.224,222
31.42,134
31.616,257
31.812,2712
32.008,2858
32.204,300
32.4,128
32.596,122
32.792,255
32.988,196
33.184,104
33.38,117
33.576,100
33.772,105
33.968,113
34.164,122
34.36,555
34.556,1287
34.752,374
34.948,123
35.144,101
35.34,117
35.536,111
35.732,114
35.928,124
36.124,564
36.32,3620
36.516,2242
36.712,182
36.908,104
37.104,100
37.3,97
37.496,135
37.692,98
37.888,90
38.084,90
38.28,90
38.476,85
38.672,93
38.868,89
39.064,94
39.26,108
39.456,100
39.652,87
39.848,81
40.044,83
40.24,80
40.436,85
40.632,88
40.828,86
41.024,88
41.22,120
41.416,665
41.612,1062
41.808,241
42.004,85
42.2,82
42.396,90
42.592,97
42.788,89
42.984,90
43.18,84
43.376,82
43.572,76
43.768,86
43.964,87
44.16,102
44.356,94
44.552,92
44.748,82
44.944,82
45.14,90
45.336,91
45.532,113
45.728,327
45.924,332
46.12,126
46.316,100
46.512,95
46.708,92
46.904,85
47.1,97
47.296,101
47.492,127
47.688,257
47.884,217
48.08,127
48.276,101
48.472,87
48.668,100
48.864,131
49.06,494
49.256,503
49.452,148
49.648,97
49.844,103
50.04,94
50.236,105
50.432,85
50.628,99
50.824,93
51.02,99
51.216,106
51.412,175
51.608,303
51.804,170
51.951,120

File: cmb_476051894rda08850450000ch00113p1_Mohave2.csv
#2-THETA,#INTENSITY
1.95,9508
2.15,8440
2.35,4886
2.55,5891
2.75,4635
2.95,4176
3.15,3687
3.35,2950
3.55,2629
3.75,2046
3.95,2047
4.15,1990
4.35,1512
4.55,1550
4.75,1238
4.95,1349
5.15,1217
5.35,1203
5.55,1126
5.75,1154
5.95,1142
6.15,1265
6.35,1507
6.55,1469
6.75,1223
6.95,1011
7.15,876
7.35,786
7.55,776
7.75,689
7.95,719
8.15,640
8.35,683
8.55,641
8.75,669
8.95,681
9.15,614
9.35,642
9.55,638
9.75,613
9.95,697
10.15,663
10.35,606
10.55,579
10.75,601
10.95,591
11.15,558
11.35,581
11.55,508
11.75,533
11.95,552
12.15,552
12.35,555
12.55,588
12.75,602
12.95,617
13.15,612
13.35,585
13.55,555
13.75,548
13.95,570
14.15,538
14.35,558
14.55,552
14.75,549
14.95,562
15.15,530
15.35,555
15.55,544
15.75,616
15.95,839
16.15,756
16.35,654
16.55,627
16.75,618
16.95,633
17.15,654
17.35,756
17.55,771
17.75,720
17.95,654
18.15,717
18.35,692
18.55,657
18.75,690
18.95,624
19.15,645
19.35,667
19.55,667
19.75,682
19.95,727
20.15,767
20.35,1035
20.55,987
20.75,855
20.95,793
21.15,773
21.35,851
21.55,795
21.75,801
21.95,860
22.15,856
22.35,852
22.55,876
22.75,865
22.95,908
23.15,976
23.35,1021
23.55,994
23.75,959
23.95,1033
24.15,1005
24.35,1033
24.55,948
24.75,972
24.95,1009
25.15,1065
25.35,1213
25.55,2561
25.75,1920
25.95,1036
26.15,974
26.35,973
26.55,1141
26.75,1146
26.95,943
27.15,925
27.35,1060
27.55,1745
27.75,1601
27.95,1087
28.15,1237
28.35,1338
28.55,1510
28.75,989
28.95,882
29.15,896
29.35,954
29.55,954
29.75,1033
29.95,1025
30.15,978
30.35,1017
30.55,954
30.75,1130
30.95,1230
31.15,1190
31.35,961
31.55,887
31.75,880
31.95,1045
32.15,1752
32.35,3546
32.55,3349
32.75,2670
32.95,1244
33.15,1410
33.35,1165
33.55,1114
33.75,1151
33.95,1282
34.15,1178
34.35,1118
34.55,1385
34.75,1338
34.95,1001
35.15,1196
35.35,1579
35.55,1303
35.75,1112
35.95,1106
36.15,1086
36.35,861
36.55,832
36.75,1024
36.95,1002
37.15,996
37.35,891
37.55,827
37.75,771
37.95,777
38.15,778
38.35,892
38.55,1153
38.75,1213
38.95,849
39.15,666
39.35,748
39.55,760
39.75,663
39.95,696
40.15,711
40.35,649
40.55,692
40.75,842
40.95,880
41.15,928
41.35,1338
41.55,2518
41.75,2219
41.95,1307
42.15,919
42.35,843
42.55,786
42.75,888
42.95,824
43.15,734
43.35,716
43.55,703
43.75,713
43.95,654
44.15,669
44.35,693
44.55,640
44.75,645
44.95,608
45.15,606
45.35,613
45.55,611
45.75,666
45.95,755
46.15,809
46.35,701
46.55,706
46.75,663
46.95,704
47.15,673
47.35,756
47.55,780
47.75,843
47.95,797
48.15,690
48.35,624
48.55,613
48.75,612
48.95,610
49.15,684
49.35,798
49.55,914
49.75,812
49.95,884
50.15,732
50.35,756
50.55,820
50.75,826
50.95,711
51.15,615
51.35,655
51.55,621
51.75,596
51.95,800
52,748

File: cmb_484894114rda09850480000ch00111p1_berylQuartz88-12.csv
#2-THETA,#INTENSITY
1.95,53
2.15,27
2.35,43
2.55,30
2.75,28
2.95,21
3.15,23
3.35,18
3.55,21
3.75,20
3.95,16
4.15,15
4.35,5
4.55,16
4.75,15
4.95,17
5.15,19
5.35,14
5.55,26
5.75,25
5.95,28
6.15,44
6.35,67
6.55,78
6.75,64
6.95,35
7.15,31
7.35,27
7.55,25
7.75,12
7.95,20
8.15,15
8.35,16
8.55,15
8.75,17
8.95,19
9.15,13
9.35,13
9.55,18
9.75,13
9.95,12
10.15,17
10.35,9
10.55,17
10.75,20
10.95,13
11.15,18
11.35,20
11.55,72
11.75,85
11.95,30
12.15,32
12.35,40
12.55,50
12.75,647
12.95,1113
13.15,69
13.35,28
13.55,19
13.75,20
13.95,17
14.15,15
14.35,19
14.55,21
14.75,18
14.95,16
15.15,12
15.35,16
15.55,19
15.75,24
15.95,21
16.15,23
16.35,22
16.55,24
16.75,23
16.95,17
17.15,25
17.35,27
17.55,23
17.75,25
17.95,20
18.15,27
18.35,23
18.55,18
18.75,29
18.95,23
19.15,22
19.35,28
19.55,24
19.75,24
19.95,26
20.15,30
20.35,42
20.55,28
20.75,30
20.95,27
21.15,30
21.35,28
21.55,29
21.75,27
21.95,33
22.15,33
22.35,264
22.55,289
22.75,39
22.95,26
23.15,26
23.35,39
23.55,49
23.75,27
23.95,31
24.15,32
24.35,42
24.55,31
24.75,29
24.95,27
25.15,28
25.35,33
25.55,46
25.75,112
25.95,438
26.15,199
26.35,28
26.55,26
26.75,28
26.95,18
27.15,20
27.35,25
27.55,21
27.75,21
27.95,24
28.15,26
28.35,25
28.55,26
28.75,51
28.95,66
29.15,33
29.35,27
29.55,28
29.75,27
29.95,29
30.15,34
30.35,30
30.55,31
30.75,34
30.95,59
31.15,92
31.35,47
31.55,30
31.75,233
31.95,793
32.15,227
32.35,35
32.55,36
32.75,50
32.95,68
33.15,31
33.35,30
33.55,29
33.75,29
33.95,27
34.15,28
34.35,75
34.55,275
34.75,122
34.95,30
35.15,26
35.35,24
35.55,28
35.75,30
35.95,37
36.15,118
36.35,745
36.55,486
36.75,53
36.95,31
37.15,21
37.35,29
37.55,33
37.75,22
37.95,23
38.15,25
38.35,20
38.55,21
38.75,24
38.95,25
39.15,24
39.35,32
39.55,27
39.75,22
39.95,18
40.15,16
40.35,18
40.55,19
40.75,21
40.95,20
41.15,23
41.35,47
41.55,219
41.75,159
41.95,30
42.15,20
42.35,20
42.55,22
42.75,22
42.95,19
43.15,24
43.35,20
43.55,14
43.75,16
43.95,23
44.15,23
44.35,31
44.55,26
44.75,30
44.95,18
45.15,25
45.35,25
45.55,19
45.75,55
45.95,81
46.15,31
46.35,30
46.55,27
46.75,22
46.95,22
47.15,28
47.35,28
47.55,31
47.75,51
47.95,53
48.15,33
48.35,28
48.55,25
48.75,24
48.95,35
49.15,99
49.35,111
49.55,25
49.75,31
49.95,29
50.15,21
50.35,25
50.55,28
50.75,24
50.95,21
51.15,24
51.35,32
51.55,55
51.75,66
51.95,34
52,31