Folder: quantdatavision/desktop/XRD_data

Note: README.md
# quantdatavision
Mining data visualization

Playing with cristallography and diffraction analysis

File: C-D-75-film.txt
#InstrumentID: Terra.157
#FileName: /home/chemin/data/C-D-75/processed/C-D-75-film.plv
#SampleInfo:
#AcquisitionDate: 04/06/09 08:39:06
#IntegrationTime: 990 seconds
#GeometryParams: axisX = 1129 axisY = 128 axisZ = 1252 sensorAngle1 = 0.523599 sensorAngle3 = 0
#EnergyParams: splitThreshold = 3 CoKaPeak = 539 kBFilterIn = 1
5	24.0526
5.2	23.6554
5.4	22.11
5.6	24.6494
5.8	25.1928
6	26.5216
6.2	25.7014
6.4	30.7104
6.6	26.7135
6.8	25.1587
7	23.894
7.2	25.7712
7.4	29.4687
7.6	24.0937
7.8	21.9353
8	27.951
8.2	23.9989
8.4	23.897
8.6	25.4201
8.8	26.6844
9	24.0921
9.2	27.4636
9.4	26.3471
9.6	26.757
9.8	29.5628
10	28.9023
10.2	27.76
10.4	29.0373
10.6	28.4346
10.8	33.9576
11	32.2724
11.2	32.4093
11.4	35.2475
11.6	31.6736
11.8	32.2746
12	28.6706
12.2	33.2969
12.4	30.1423
12.6	30.219
12.8	31.9201
13	32.812
13.2	32.875
13.4	35.9652
13.6	34.9468
13.8	33.2797
14	33.9669
14.2	33.5938
14.4	40.5994
14.6	37.7983
14.8	35.6836
15	35.2641
15.2	30.945
15.4	34.871
15.6	34.6281
15.8	30.6373
16	37.2902
16.2	36.6581
16.4	37.4595
16.6	38.709
16.8	36.8116
17	34.3217
17.2	43.3936
17.4	38.923
17.6	38.0303
17.8	38.3025
18	36.8108
18.2	32.6394
18.4	37.5375
18.6	39.2874
18.8	35.5113
19	36.6778
19.2	43.5565
19.4	39.452
19.6	37.2175
19.8	33.4067
20	33.6795
20.2	41.3682
20.4	34.9828
20.6	35.2401
20.8	36.7061
21	37.7178
21.2	33.1058
21.4	37.1298
21.6	34.239
21.8	32.1768
22	38.3308
22.2	33.4981
22.4	31.1981
22.6	27.9244
22.8	34.9627
23	30.8038
23.2	28.4182
23.4	34.0325
23.6	32.8713
23.8	33.4356
24	32.0229
24.2	31.5568
24.4	34.5162
24.6	33.1901
24.8	33.4375
25	32.835
25.2	29.1265
25.4	32.0885
25.6	33.824
25.8	27.6991
26	29.4601
26.2	25.3166
26.4	28.4979
26.6	28.776
26.8	40.1888
27	29.9483
27.2	33.1876
27.4	34.1165
27.6	28.7842
27.8	34.6113
28	44.9132
28.2	31.6927
28.4	29.4687
28.6	30.3305
28.8	29.7004
29	28.0827
29.2	29.5356
29.4	27.9465
29.6	29.962
29.8	28.1462
30	24.9388
30.2	25.81
30.4	27.9979
30.6	27.0791
30.8	31.2335
31	29.9051
31.2	31.6743
31.4	26.8597
31.6	29.2694
31.8	27.4277
32	27.879
32.2	27.7658
32.4	28.9582
32.6	31.8861
32.8	26.2334
33	28.1575
33.2	24.6917
33.4	27.2783
33.6	29.1083
33.8	34.5188
34	32.5996
34.2	92.7764
34.4	82.6866
34.6	28.6263
34.8	25.2662
35	26.2591
35.2	23.8924
35.4	29.4917
35.6	32.3204
35.8	57.5924
36	276.099
36.2	239.996
36.4	52.0572
36.6	39.2957
36.8	30.8746
37	24.9486
37.2	25.3696
37.4	26.0537
37.6	28.2663
37.8	25.1088
38	27.3386
38.2	28.334
38.4	28.1476
38.6	30.567
38.8	26.959
39	37.5836
39.2	42.1048
39.4	28.8629
39.6	28.3862
39.8	26.8701
40	26.0166
40.2	26.619
40.4	24.9004
40.6	29.3001
40.8	26.2116
41	27.7393
41.2	43.6263
41.4	27.5463
41.6	25.6969
41.8	25.1322
42	33.7048
42.2	26.0764
42.4	24.9653
42.6	26.7051
42.8	25.6301
43	23.4334
43.2	27.1297
43.4	27.9998
43.6	41.3716
43.8	38.6678
44	23.9508
44.2	25.5397
44.4	21.4021
44.6	24.6826
44.8	28.2545
45	24.8526
45.2	27.2523
45.4	21.3906
45.6	26.407
45.8	26.4459
46	37.0746
46.2	34.4162
46.4	24.24
46.6	23.4327
46.8	24.5531
47	22.8654
47.2	26.3581
47.4	23.5686
47.6	24.612
47.8	30.7224
48	68.8014
48.2	73.9196
48.4	39.168
48.6	19.9522
48.8	28.549
49	24.1822
49.2	25.4756
49.4	26.2172
49.6	24.3781
49.8	24.6347
50	26.0125
50.2	21.8702
50.4	35.3062
50.6	28.9218
50.8	26.8986
51	26.9222
51.2	34.1456
51.4	32.8536
51.6	27.2003
51.8	25.1568
52	23.2674
52.2	19.8041
52.4	26.1386
52.6	50.3038
52.8	40.4456
53	27.2878
53.2	22.6626
53.4	26.5865
53.6	21.1943
53.8	23.2952
54	25.1075
54.2	23.8014
54.4	23.7053
54.6	17.9294
54.8	17.004
54.95	23.5776

File: calcite-ST2-film.txt
#InstrumentID: Terra.157
#FileName: /home/chemin/data/calcite-ST2/processed/calcite-ST2-film.plv
#SampleInfo:
#AcquisitionDate: 04/01/09 14:33:27
#IntegrationTime: 990 seconds
#GeometryParams: axisX = 1129 axisY = 128 axisZ = 1252 sensorAngle1 = 0.523599 sensorAngle3 = 0
#EnergyParams: splitThreshold = 3 CoKaPeak = 535 kBFilterIn = 1
5	42.4547
5.2	43.7059
5.4	38.8846
5.6	42.2285
5.8	43.2719
6	45.4775
6.2	48.5247
6.4	42.6899
6.6	43.307
6.8	42.3407
7	38.2066
7.2	39.5507
7.4	36.7668
7.6	42.8044
7.8	38.308
8	38.085
8.2	43.9578
8.4	38.5628
8.6	45.3801
8.8	41.4662
9	44.7031
9.2	40.9692
9.4	42.257
9.6	40.8971
9.8	46.5011
10	42.8216
10.2	43.2412
10.4	44.3272
10.6	40.8099
10.8	47.2516
11	42.314
11.2	48.7381
11.4	44.7081
11.6	45.8378
11.8	44.1182
12	49.2978
12.2	49.793
12.4	47.2658
12.6	50.6258
12.8	49.6088
13	46.7713
13.2	48.7452
13.4	46.1136
13.6	50.4835
13.8	50.4982
14	53.7827
14.2	50.9113
14.4	48.5542
14.6	49.4951
14.8	45.9445
15	48.9222
15.2	51.2207
15.4	46.0751
15.6	56.9008
15.8	49.9442
16	52.4038
16.2	53.3125
16.4	54.105
16.6	51.5682
16.8	52.1538
17	52.2881
17.2	50.1957
17.4	51.6645
17.6	58.2656
17.8	50.2461
18	53.5738
18.2	51.3299
18.4	55.5296
18.6	50.4469
18.8	52.5847
19	56.7365
19.2	50.7732
19.4	53.5755
19.6	49.4219
19.8	53.3276
20	51.3325
20.2	57.8087
20.4	51.3488
20.6	51.6502
20.8	54.1148
21	46.2067
21.2	45.9412
21.4	52.0951
21.6	51.0316
21.8	45.4982
22	53.1483
22.2	49.2083
22.4	44.2095
22.6	56.4477
22.8	51.5288
23	58.1691
23.2	47.3101
23.4	54.089
23.6	51.6907
23.8	48.4558
24	48.9218
24.2	51.1716
24.4	47.3066
24.6	51.0335
24.8	52.5866
25	48.6837
25.2	50.294
25.4	52.3426
25.6	49.0918
25.8	49.5682
26	49.5134
26.2	50.0952
26.4	49.12
26.6	58.5942
26.8	79.2193
27	61.7046
27.2	46.8376
27.4	43.041
27.6	47.3022
27.8	48.7496
28	48.0803
28.2	48.2497
28.4	42.9687
28.6	46.5892
28.8	44.3197
29	45.288
29.2	48.5123
29.4	47.5983
29.6	48.0013
29.8	45.0781
30	47.2589
30.2	47.8454
30.4	49.1237
30.6	42.131
30.8	43.9092
31	50.4289
31.2	52.692
31.4	39.4083
31.6	49.6286
31.8	47.8387
32	49.6484
32.2	45.3518
32.4	47.4442
32.6	47.1252
32.8	47.5048
33	41.2645
33.2	47.2804
33.4	49.096
33.6	50.5484
33.8	50.8635
34	78.2041
34.2	358.94
34.4	303.69
34.6	65.162
34.8	47.3706
35	51.7533
35.2	52.8185
35.4	42.591
35.6	47.8127
35.8	47.1558
36	42.9446
36.2	44.6936
36.4	46.6588
36.6	55.7278
36.8	52.1945
37	45.1633
37.2	48.7905
37.4	45.7278
37.6	42.8402
37.8	46.9072
38	51.1695
38.2	48.0469
38.4	46.2303
38.6	47.6803
38.8	41.0441
39	42.4529
39.2	45.9278
39.4	40.8932
39.6	42.4603
39.8	41.3076
40	42.0819
40.2	43.7216
40.4	43.9877
40.6	48.4321
40.8	39.4692
41	49.7128
41.2	44.8781
41.4	44.1079
41.6	38.2532
41.8	47.1825
42	92.3185
42.2	59.2959
42.4	52.6137
42.6	42.9222
42.8	42.4375
43	45.1558
43.2	36.833
43.4	39.9274
43.6	40.0244
43.8	43.7753
44	43.0448
44.2	40.1229
44.4	40.9821
44.6	43.4871
44.8	39.4662
45	39.6843
45.2	41.2794
45.4	45.9333
45.6	39.7893
45.8	44.9575
46	92.5661
46.2	100.108
46.4	42.9614
46.6	40.862
46.8	41.7594
47	45.7459
47.2	42.7884
47.4	42.9185
47.6	36.8942
47.8	46.1356
48	43.0941
48.2	34.8578
48.4	40.3234
48.6	35.4277
48.8	36.717
49	42.7587
49.2	34.6108
49.4	40.7037
49.6	41.5387
49.8	38.5151
50	42.9251
50.2	40.8795
50.4	67.2237
50.6	81.4295
50.8	57.4055
51	39.4297
51.2	39.5943
51.4	40.3343
51.6	39.296
51.8	40.0148
52	38.3849
52.2	39.6029
52.4	35.2113
52.6	35.8803
52.8	40.7198
53	33.538
53.2	36.6321
53.4	37.9809
53.6	31.7272
53.8	37.831
54	35.1008
54.2	28.8821
54.4	29.6458
54.6	29.6298
54.8	31.6066
54.95	38.832

File: CALCITE-ST.txt
5.0000	55.133
5.1800	55.656
5.3600	47.447
5.5400	60.050
5.7200	53.046
5.9000	83.425
6.0800	60.001
6.2600	71.047
6.4400	83.150
6.6200	55.653
6.8000	63.471
6.9800	57.126
7.1600	58.819
7.3400	53.817
7.5200	47.024
7.7000	46.007
7.8800	40.825
8.0600	43.098
8.2400	31.360
8.4200	61.539
8.6000	62.340
8.7800	42.300
8.9600	49.353
9.1400	57.228
9.3200	59.680
9.5000	71.424
9.6800	60.963
9.8600	67.791
10.040	61.396
10.220	76.463
10.400	56.414
10.580	85.262
10.760	85.302
10.940	87.837
11.120	66.064
11.300	72.237
11.480	70.520
11.660	90.151
11.840	73.470
12.020	82.220
12.200	71.142
12.380	99.833
12.560	103.39
12.740	132.47
12.920	100.17
13.100	107.74
13.280	91.973
13.460	104.80
13.640	108.65
13.820	110.24
14.000	106.84
14.180	105.05
14.360	103.60
14.540	97.928
14.720	104.08
14.900	117.43
15.080	112.20
15.260	97.600
15.440	114.71
15.620	114.01
15.800	144.25
15.980	101.85
16.160	155.16
16.340	123.48
16.520	108.48
16.700	106.22
16.880	132.46
17.060	105.31
17.240	114.42
17.420	86.878
17.600	119.00
17.780	91.785
17.960	136.79
18.140	115.09
18.320	106.59
18.500	135.58
18.680	118.66
18.860	137.27
19.040	119.20
19.220	126.29
19.400	126.07
19.580	118.16
19.760	88.187
19.940	125.08
20.120	121.88
20.300	117.60
20.480	97.767
20.660	108.82
20.840	106.16
21.020	126.32
21.200	121.80
21.380	133.65
21.560	116.50
21.740	104.24
21.920	116.94
22.100	101.51
22.280	94.755
22.460	118.46
22.640	97.044
22.820	97.150
23.000	126.05
23.180	107.21
23.360	113.14
23.540	124.25
23.720	116.51
23.900	111.48
24.080	108.07
24.260	101.60
24.440	96.467
24.620	112.75
24.800	104.45
24.980	107.92
25.160	112.50
25.340	108.75
25.520	103.22
25.700	105.99
25.880	75.633
26.060	99.249
26.240	105.08
26.420	107.71
26.600	108.99
26.780	81.985
26.960	83.209
27.140	96.678
27.320	83.882
27.500	92.358
27.680	82.147
27.860	95.898
28.040	90.563
28.220	99.485
28.400	160.44
28.580	234.01
28.760	129.34
28.940	88.924
29.120	83.761
29.300	77.341
29.480	53.966
29.660	82.122
29.840	76.127
30.020	83.998
30.200	67.757
30.380	59.461
30.560	74.121
30.740	72.239
30.920	66.679
31.100	74.935
31.280	60.405
31.460	61.675
31.640	61.648
31.820	67.085
32.000	80.867
32.180	73.211
32.360	67.691
32.540	62.102
32.720	71.557
32.900	74.429
33.080	99.915
33.260	72.889
33.440	68.482
33.620	71.172
33.800	73.881
33.980	91.339
34.160	64.428
34.340	69.537
34.520	67.888
34.700	77.090
34.880	60.298
35.060	61.182
35.240	68.768
35.420	67.747
35.600	72.344
35.780	82.720
35.960	58.561
36.140	109.35
36.320	199.70
36.500	1273.2
36.680	1673.4
36.860	372.35
37.040	85.794
37.220	81.102
37.400	80.379
37.580	68.692
37.760	83.381
37.940	64.873
38.120	55.494
38.300	50.431
38.480	61.000
38.660	62.298
38.840	44.669
39.020	63.573
39.200	83.584
39.380	61.358
39.560	53.919
39.740	70.064
39.920	33.968
40.100	57.204
40.280	60.787
40.460	57.291
40.640	65.297
40.820	49.867
41.000	67.802
41.180	44.856
41.360	53.682
41.540	72.667
41.720	37.893
41.900	50.135
42.080	66.671
42.260	69.018
42.440	47.564
42.620	55.412
42.800	66.423
42.980	52.073
43.160	51.752
43.340	39.619
43.520	37.382
43.700	42.460
43.880	58.697
44.060	38.059
44.240	62.505
44.420	69.547
44.600	68.847
44.780	126.11
44.960	219.92
45.140	135.57
45.320	43.931
45.500	39.797
45.680	50.853
45.860	42.619
46.040	56.465
46.220	46.297
46.400	45.139
46.580	40.332
46.760	42.850
46.940	49.913
47.120	31.501
47.300	45.939
47.480	33.919
47.660	61.987
47.840	52.368
48.020	55.278
48.200	36.590
48.380	47.030
48.560	48.185
48.740	57.515
48.920	54.189
49.100	94.447
49.280	314.91
49.460	284.88
49.640	101.50
49.820	49.791
50.000	40.453
50.180	44.306
50.360	70.372
50.540	49.438
50.720	53.917
50.900	34.670
51.080	48.245
51.260	44.733
51.440	32.794
51.620	44.305
51.800	41.370
51.980	54.893
52.160	51.227
52.340	53.867
52.520	51.273
52.700	33.668
52.880	33.482
53.060	53.525
53.240	29.918
53.420	49.653
53.600	38.342
53.780	57.720
53.960	93.814
54.140	257.61
54.320	186.40
54.500	70.601
54.680	26.944
54.860	34.854
55.040	37.100
55.220	29.278
55.400	57.353
55.580	52.400
55.760	37.604
55.940	39.696
56.120	35.087
56.300	34.477
56.480	25.550
56.660	71.105
56.840	37.713
57.020	43.851
57.200	31.681
57.380	17.854
57.560	30.591
57.740	34.775
57.920	66.133
58.100	32.563
58.280	59.752
58.460	33.942
58.640	54.495
58.820	52.737
58.940	38.211

File: dolomite-ST-film-CROP_TEST.txt
#InstrumentID: Terra.157
#FileName: /home/chemin/data/dolomite-ST/processed/dolomite-ST-film.plv
#SampleInfo:
#AcquisitionDate: 04/04/09 00:36:31
#IntegrationTime: 990 seconds
#GeometryParams: axisX = 1129 axisY = 128 axisZ = 1252 sensorAngle1 = 0.523599 sensorAngle3 = 0
#EnergyParams: splitThreshold = 3 CoKaPeak = 539 kBFilterIn = 1
21	37.3803
21.1	35.0992
21.2	39.475
21.3	43.4435
21.4	42.3385
21.5	41.1067
21.6	39.9032
21.7	42.2553
21.8	42.3163
21.9	37.5546
22	38.6557
22.1	39.0208
22.2	38.8771
22.3	39.4345
22.4	43.1687
22.5	39.4937
22.6	39.4356
22.7	39.1359
22.8	40.28
22.9	42.5917
23	38.3883
23.1	40.5906
23.2	37.9057
23.3	41.3183
23.4	43.3354
23.5	42.9015
23.6	36.8851
23.7	43.5322
23.8	37.7496
23.9	39.3511
24	38.8169
24.1	42.778
24.2	38.3813
24.3	41.3597
24.4	38.7476
24.5	43.3128
24.6	34.6672
24.7	37.3126
24.8	38.7031
24.9	38.4673
25	33.2059
25.1	37.9617
25.2	37.9287
25.3	36.5979
25.4	41.6329
25.5	45.9515
25.6	50.3409
25.7	51.0447
25.8	48.7939
25.9	41.9245
26	40.703
26.1	35.8023
26.2	44.0132
26.3	35.4161
26.4	39.1358
26.5	32.6038
26.6	32.8198
26.7	33.117
26.8	36.5962
26.9	35.6129
27	38.3107
27.1	32.8244
27.2	36.5012
27.3	33.6645
27.4	39.3148
27.5	40.7776
27.6	40.5084
27.7	43.5825
27.8	42.4698
27.9	61.8827
28	70.2879
28.1	58.5819
28.2	50.9904
28.3	38.9854
28.4	35.232
28.5	34.5455
28.6	35.327
28.7	35.27
28.8	34.8423
28.9	36.5773
29	39.3505
29.1	32.8384
29.2	36.9648
29.3	30.4289
29.4	31.8534
29.5	40.5093
29.6	32.5971
29.7	34.5093
29.8	36.1936
29.9	34.8559
30	31.9923
30.1	32.7996
30.2	36.917
30.3	31.1013
30.4	35.923
30.5	32.2899
30.6	35.2698
30.7	28.5062
30.8	30.9798
30.9	37.8219
31	31.8337
31.1	32.0905
31.2	33.8204
31.3	34.0198
31.4	32.6913
31.5	31.132
31.6	32.598
31.7	33.341
31.8	31.5941
31.9	31.5462
32	34.1162
32.1	35.7817
32.2	38.8745
32.3	39.9437
32.4	34.6108
32.5	34.0778
32.6	40.7513
32.7	36.6779
32.8	31.6191
32.9	31.779
33	37.4597
33.1	27.1002
33.2	33.3109
33.3	31.586
33.4	31.8905
33.5	28.0699
33.6	35.6773
33.7	31.9357
33.8	33.7035
33.9	34.3463
34	33.6952
34.1	34.3222
34.2	34.8005
34.3	33.7788
34.4	32.5629
34.5	28.933
34.6	31.9854
34.7	29.9313
34.8	31.8939
34.9	34.5382
35	31.5499
35.1	38.4615
35.2	37.5391
35.3	36.3136
35.4	34.6662
35.5	40.0943
35.6	43.5676
35.7	54.2078
35.8	91.8835
35.9	239.775
36	483.357
36.1	638.42
36.2	482.032
36.3	216.726
36.4	74.2307
36.5	43.7617
36.6	39.1003
36.7	40.9316
36.8	33.7116
36.9	38.078
37	29.0514
37.1	32.6893
37.2	28.6738
37.3	30.6165
37.4	33.3465
37.5	33.5871
37.6	31.0468
37.7	32.3133
37.8	36.5697
37.9	35.1885
38	28.4685
38.1	28.6072
38.2	33.5385
38.3	31.3298
38.4	32.0068
38.5	28.4011
38.6	29.1785
38.7	31.135
38.8	39.1576
38.9	39.1546
39	48.9064
39.1	50.8193
39.2	58.397
39.3	52.1929
39.4	39.9195
39.5	29.2942
39.6	29.3418
39.7	29.3549
39.8	32.1263
39.9	33.0482
40	26.7864
40.1	29.6649
40.2	30.6909
40.3	33.7024
40.4	22.682
40.5	30.6602
40.6	31.2014
40.7	26.078
40.8	29.5051
40.9	27.9155
41	37.4132
41.1	44.641
41.2	58.226
41.3	56.3872
41.4	41.7768
41.5	32.1834
41.6	30.8242
41.7	28.9141
41.8	29.3291
41.9	33.3947
42	25.5356
42.1	30.6702
42.2	30.0703
42.3	27.8534
42.4	26.9544
42.5	31.8921
42.6	30.4146
42.7	28.7247
42.8	31.7097
42.9	27.9824
43	30.8283
43.1	28.4279
43.2	25.5589
43.3	32.9321
43.4	36.1803
43.5	48.3378
43.6	66.3917
43.7	78.7002
43.8	68.2129
43.9	39.9414
44	28.969

File: dolomite-ST-thresh.txt
#InstrumentID: Terra.157
#DatasetName: dolomite-ST
#SampleInfo:
#AcquisitionDate: 04/04/09 00:36:31
#IntegrationTime: 990 seconds
#GeometryParams: axisX = 1129 axisY = 128 axisZ = 1252 sensorAngle1 = 0.523599 sensorAngle3 = 0
#EnergyParams: splitThreshold = 3 CoKaPeak = 539 kBFilterIn = 1
5	6.63887
5.2	5.93565
5.4	4.28706
5.6	5.20879
5.8	4.13928
6	7.47921
6.2	5.07779
6.4	10.0694
6.6	8.42439
6.8	7.12063
7	6.05921
7.2	5.33546
7.4	4.17149
7.6	3.05174
7.8	7.00122
8	4.69886
8.2	6.61715
8.4	6.17909
8.6	7.8842
8.8	3.27801
9	3.73905
9.2	6.58212
9.4	6.5666
9.6	8.55277
9.8	6.19835
10	6.20857
10.2	7.22552
10.4	7.74023
10.6	4.74477
10.8	8.54742
11	8.01873
11.2	5.9354
11.4	9.33081
11.6	5.49246
11.8	6.64656
12	10.6809
12.2	8.48495
12.4	6.47285
12.6	9.87669
12.8	9.02771
13	6.5757
13.2	13.6316
13.4	8.00272
13.6	5.84279
13.8	10.718
14	10.8194
14.2	9.8389
14.4	10.824
14.6	9.69726
14.8	8.48527
15	13.8168
15.2	10.7873
15.4	12.2951
15.6	14.4153
15.8	11.5145
16	10.8306
16.2	14.9428
16.4	20.338
16.6	10.379
16.8	10.8733
17	12.8925
17.2	14.813
17.4	11.4284
17.6	10.6806
17.8	8.6237
18	8.32548
18.2	12.1113
18.4	11.6774
18.6	13.379
18.8	12.4671
19	7.46505
19.2	12.2755
19.4	11.2324
19.6	12.3677
19.8	11.7973
20	10.0396
20.2	10.6224
20.4	14.2152
20.6	13.3168
20.8	9.98621
21	9.86061
21.2	12.628
21.4	12.2154
21.6	14.4043
21.8	15.627
22	10.4404
22.2	12.0065
22.4	13.8054
22.6	13.9927
22.8	12.511
23	9.20432
23.2	10.5876
23.4	13.2254
23.6	8.00064
23.8	9.63422
24	12.9079
24.2	10.5438
24.4	11.0365
24.6	8.26997
24.8	10.5252
25	5.77462
25.2	11.8832
25.4	13.3723
25.6	16.5029
25.8	13.1721
26	12.8221
26.2	12.5551
26.4	11.3291
26.6	7.75758
26.8	9.25857
27	10.9246
27.2	9.56858
27.4	11.5707
27.6	11.5723
27.8	12.2305
28	21.9647
28.2	17.2516
28.4	9.01466
28.6	8.03929
28.8	9.18247
29	9.29389
29.2	8.75832
29.4	5.7898
29.6	6.7149
29.8	7.46677
30	8.03622
30.2	6.51668
30.4	8.62182
30.6	7.69797
30.8	6.56211
31	6.22073
31.2	7.96931
31.4	5.65469
31.6	6.83656
31.8	6.57367
32	7.75156
32.2	12.4516
32.4	5.26817
32.6	10.3524
32.8	7.15395
33	11.1701
33.2	6.43831
33.4	6.08225
33.6	6.71209
33.8	8.07179
34	5.61771
34.2	7.57641
34.4	8.10037
34.6	7.03722
34.8	7.91304
35	6.88301
35.2	7.8467
35.4	7.59034
35.6	12.7317
35.8	35.1544
36	253.191
36.2	251.149
36.4	23.7175
36.6	8.28973
36.8	7.01415
37	4.72742
37.2	5.91158
37.4	6.76382
37.6	4.7738
37.8	7.29308
38	6.2652
38.2	4.65837
38.4	6.09661
38.6	5.90353
38.8	11.3199
39	15.7344
39.2	17.8701
39.4	10.5014
39.6	4.98165
39.8	6.56912
40	2.75146
40.2	4.53191
40.4	4.38435
40.6	7.65313
40.8	7.59328
41	10.2777
41.2	18.469
41.4	12.2148
41.6	7.86905
41.8	6.33085
42	2.93622
42.2	7.31479
42.4	2.97984
42.6	6.44554
42.8	4.76262
43	7.04538
43.2	3.22034
43.4	7.91148
43.6	25.5007
43.8	25.2488
44	6.51212
44.2	9.69364
44.4	6.6037
44.6	5.86581
44.8	9.81256
45	3.19772
45.2	6.26318
45.4	5.09521
45.6	3.61797
45.8	3.84833
46	9.52278
46.2	7.70089
46.4	2.40929
46.6	3.30536
46.8	4.27779
47	5.83148
47.2	2.73673
47.4	4.47525
47.6	5.41209
47.8	13.5958
48	42.5622
48.2	63.3439
48.4	17.9836
48.6	5.24127
48.8	4.71027
49	4.14192
49.2	4.02216
49.4	3.57154
49.6	3.77311
49.8	6.40854
50	3.69893
50.2	5.36603
50.4	3.91049
50.6	3.24049
50.8	4.36742
51	5.04249
51.2	15.6939
51.4	10.5787
51.6	6.95518
51.8	7.42953
52	3.76899
52.2	5.0421
52.4	7.68729
52.6	26.3205
52.8	20.722
53	6.53114
53.2	1.99767
53.4	5.55705
53.6	4.48844
53.8	6.87687
54	4.26132
54.2	6.60201
54.4	2.12949
54.6	4.08118
54.8	4.60475
54.95	2.32631

File: Mix1A-film.txt
#InstrumentID: BTX.359
#DatasetName: Mix1A
#SampleInfo:
#AcquisitionDate: 12/12/13 22:07:16
#IntegrationTime: 400 seconds
#GeometryParams: axisX = -68.5142 axisY = 134 axisZ = 1194.7 sensorAngle1 = -29.0823 sensorAngle3 = 0
#EnergyParams: splitThreshold = 12 CoKaPeak = 1281 kBFilterIn = 1
5	199.02
5.2	196.723
5.4	218.66
5.6	215.318
5.8	222.132
6	249.185
6.2	337.629
6.4	279.65
6.6	306.883
6.8	321.678
7	285.237
7.2	217.728
7.4	224.758
7.6	247.183
7.8	216.755
8	257.167
8.2	223.855
8.4	246.665
8.6	230.2
8.8	229.765
9	217.446
9.2	226.661
9.4	252.573
9.6	209.51
9.8	252.05
10	271.759
10.2	233.971
10.4	295.418
10.6	234.243
10.8	236.999
11	243.914
11.2	251.493
11.4	190.327
11.6	270.537
11.8	279.373
12	265.332
12.2	254.83
12.4	257.865
12.6	271.095
12.8	230.788
13	276.708
13.2	262.635
13.4	255.458
13.6	222.325
13.8	231.436
14	218.286
14.2	255.46
14.4	261.098
14.6	264.909
14.8	250.929
15	269.894
15.2	279.933
15.4	250.265
15.6	226.346
15.8	304.03
16	334.41
16.2	321.395
16.4	220.695
16.6	202.529
16.8	222.329
17	260.224
17.2	212.689
17.4	306.255
17.6	230.22
17.8	190.685
18	213.347
18.2	257.277
18.4	249.521
18.6	174.457
18.8	178.386
19	177.252
19.2	243.251
19.4	162.104
19.6	167.006
19.8	210.343
20	201.926
20.2	132.883
20.4	231.207
20.6	186.179
20.8	148.275
21	170.054
21.2	166.165
21.4	172.882
21.6	160.701
21.8	181.245
22	198.08
22.2	187.153
22.4	184.143
22.6	166.655
22.8	215.284
23	186.454
23.2	141.028
23.4	139.97
23.6	153.876
23.8	231.272
24	373.118
24.2	1582.37
24.4	1380.57
24.6	495.425
24.8	214.818
25	119.962
25.2	196.264
25.4	221.966
25.6	596.914
25.8	436.29
26	241.865
26.2	200.673
26.4	218.964
26.6	207.099
26.8	305.809
27	399.269
27.2	295.876
27.4	410.797
27.6	282.002
27.8	346.71
28	402.132
28.2	478.98
28.4	369.082
28.6	189.841
28.8	201.189
29	196.185
29.2	158.615
29.4	163.497
29.6	338.112
29.8	444.063
30	268.985
30.2	182.827
30.4	234.703
30.6	440.527
30.8	1607.75
31	6459.76
31.2	3322.86
31.4	608.263
31.6	675.253
31.8	654.723
32	984.897
32.2	680.413
32.4	712.234
32.6	715.846
32.8	467.251
33	367.381
33.2	179.77
33.4	161.575
33.6	157.97
33.8	155.943
34	126.65
34.2	234.807
34.4	261.826
34.6	158.696
34.8	188.107
35	313.847
35.2	389.332
35.4	280.593
35.6	267.613
35.8	286.09
36	244.582
36.2	169.412
36.4	145.62
36.6	129.278
36.8	107.233
37	95.8274
37.2	106.198
37.4	142.911
37.6	164.321
37.8	183.461
38	121.314
38.2	92.6556
38.4	75.916
38.6	112.566
38.8	89.6196
39	68.415
39.2	101.809
39.4	90.8679
39.6	173.585
39.8	202.6
40	183.776
40.2	158.849
40.4	184.331
40.6	159.704
40.8	208.756
41	237.791
41.2	156.937
41.4	156.577
41.6	201.453
41.8	134.795
42	105.368
42.2	109.194
42.4	113.469
42.6	510.749
42.8	446.258
43	189.31
43.2	187.244
43.4	168.346
43.6	138.654
43.8	157.098
44	125.731
44.2	119.562
44.4	119.928
44.6	110.758
44.8	114.31
45	147.882
45.2	155.716
45.4	126.228
45.6	117.767
45.8	87.0815
46	295.76
46.2	491.393
46.4	173.008
46.6	82.9114
46.8	144.956
47	201.855
47.2	246.668
47.4	163.06
47.6	107.361
47.8	82.5196
48	89.6392
48.2	83.164
48.4	100.561
48.6	125.826
48.8	191.788
49	190.156
49.2	120.709
49.4	111.929
49.6	309.364
49.8	315.176
50	172.047
50.2	86.7305
50.4	77.5926
50.6	122.225
50.8	102.317
51	54.5261
51.2	122.65
51.4	71.136
51.6	70.646
51.8	105.262
52	58.9808
52.2	100.005
52.4	112.116
52.6	76.987
52.8	91.0183
53	113.255
53.2	126.099
53.4	128.169
53.6	222.546
53.8	243.795
54	90.3466
54.2	90.3233
54.4	88.9872
54.6	120.358
54.8	109.233
54.9	123.944

File: Mix3C-film.txt
#InstrumentID: BTX.359
#DatasetName: Mix3C
#SampleInfo:
#AcquisitionDate: 12/12/13 18:06:41
#IntegrationTime: 400 seconds
#GeometryParams: axisX = -68.5142 axisY = 134 axisZ = 1194.7 sensorAngle1 = -29.0823 sensorAngle3 = 0
#EnergyParams: splitThreshold = 12 CoKaPeak = 1294 kBFilterIn = 1
5	318.062
5.2	266.046
5.4	262.651
5.6	296.481
5.8	323.733
6	327.774
6.2	399.815
6.4	394.537
6.6	382.046
6.8	381.708
7	362.857
7.2	342.639
7.4	264.522
7.6	320.001
7.8	242.072
8	300.617
8.2	252.887
8.4	271.322
8.6	255.638
8.8	255.818
9	321.09
9.2	345.929
9.4	305.776
9.6	354.472
9.8	540.827
10	601.549
10.2	592.707
10.4	372.049
10.6	298.661
10.8	307.178
11	285.546
11.2	302.426
11.4	335.661
11.6	370.015
11.8	316.726
12	323.072
12.2	389.069
12.4	315.886
12.6	342.114
12.8	291.705
13	288.591
13.2	342.589
13.4	269.419
13.6	306.369
13.8	250.061
14	283.123
14.2	298.385
14.4	206.188
14.6	275.218
14.8	336.586
15	295.928
15.2	265.398
15.4	300.488
15.6	283.987
15.8	334.741
16	289.321
16.2	248.128
16.4	322.066
16.6	250.4
16.8	231.674
17	275.443
17.2	336.822
17.4	226.019
17.6	239.011
17.8	231.88
18	215.067
18.2	249.732
18.4	246.402
18.6	243.156
18.8	273.515
19	238.231
19.2	208.414
19.4	216.102
19.6	216.943
19.8	196.025
20	240.988
20.2	239.357
20.4	244.546
20.6	195.727
20.8	208.614
21	335.402
21.2	224.722
21.4	243.503
21.6	149.444
21.8	209.287
22	200.182
22.2	264.964
22.4	243.947
22.6	230.698
22.8	226.435
23	247.778
23.2	198.889
23.4	198.638
23.6	212.218
23.8	190.006
24	407.245
24.2	1949.08
24.4	1176.65
24.6	266.163
24.8	211.148
25	168.089
25.2	163.892
25.4	220.95
25.6	406.816
25.8	300.942
26	195.175
26.2	174.584
26.4	195.427
26.6	213.566
26.8	208.675
27	158.592
27.2	190.691
27.4	251.315
27.6	205.838
27.8	190.382
28	233.783
28.2	369.859
28.4	280.139
28.6	163.893
28.8	155.131
29	136.036
29.2	182.194
29.4	160.462
29.6	184.185
29.8	226.173
30	158.792
30.2	237.071
30.4	372.431
30.6	446
30.8	2156.48
31	9332.54
31.2	5028.55
31.4	378.266
31.6	342.15
31.8	317.14
32	230.705
32.2	316.47
32.4	481.015
32.6	525.072
32.8	375.195
33	332.603
33.2	303.148
33.4	227.649
33.6	225.809
33.8	150.175
34	140.004
34.2	144.495
34.4	181.99
34.6	164.482
34.8	143.759
35	167.985
35.2	191.452
35.4	209.279
35.6	293.735
35.8	214.118
36	136.699
36.2	130.463
36.4	131.527
36.6	124.464
36.8	110.73
37	126.991
37.2	138.967
37.4	141.754
37.6	133.355
37.8	108.003
38	157.665
38.2	172.129
38.4	95.2699
38.6	142.834
38.8	200.695
39	116.917
39.2	139.948
39.4	157.846
39.6	237.798
39.8	300.898
40	174.505
40.2	129.638
40.4	171.237
40.6	218.888
40.8	163.486
41	250.581
41.2	218.17
41.4	158.94
41.6	128.481
41.8	119.041
42	118.431
42.2	128.777
42.4	179.288
42.6	551.203
42.8	654.565
43	302.243
43.2	238.728
43.4	103.048
43.6	125.984
43.8	120.714
44	107.658
44.2	132.483
44.4	74.897
44.6	102.454
44.8	107.181
45	159.092
45.2	152.653
45.4	148.18
45.6	109.462
45.8	188.945
46	445.375
46.2	649.556
46.4	250.691
46.6	127.123
46.8	166.615
47	276.042
47.2	378.216
47.4	188.32
47.6	118.844
47.8	101.792
48	138.685
48.2	157.754
48.4	171.337
48.6	113.513
48.8	136.495
49	144.857
49.2	118.75
49.4	126.638
49.6	429.741
49.8	472.794
50	168.59
50.2	154.07
50.4	63.8112
50.6	85.1865
50.8	71.9222
51	115.016
51.2	46.8869
51.4	112.115
51.6	132.029
51.8	82.8999
52	82.4941
52.2	87.681
52.4	118.196
52.6	107.738
52.8	76.452
53	123.158
53.2	114.954
53.4	135.793
53.6	257.427
53.8	261.929
54	98.5995
54.2	62.6831
54.4	79.0135
54.6	66.6408
54.8	71.1733
54.9	80.0574